rt,url,experiment_phase,refresh_count,trial_type,trial_index,time_elapsed,experiment_name,PROLIFIC_PID,STUDY_ID,SESSION_ID,platform,start_time,condition,end_time,total_time,ip_address,version_date,anon_id,debug_mode,completion_code,seed,redirect_url,worker_info,browser_events,success,screen_width,screen_height,window_width,window_height,form_name,form_id,instructions_viewed_count,view_history,response,initial_response,initial_response_time,all_responses,all_response_times,stimulus,form_data
12230,src/html/consent.html,consent,0,render-mustache-template,0,12400,thesis_experiment,65959647dc9090390e4ec364,6595c7457f89fe169c18e35d,0m6b9t6wri8,prolific,2024-01-03T20:53:20Z,competent,2024-01-03T20:59:03Z,341966,"""192.168.0.4""",12/21/23,h9jfzlzs0khyj5g,FALSE,3878987065-exa-5831488301-mple,1.70432E+12,https://app.prolific.com/submissions/complete?cc=C9DG4TYX,"{'PROLIFIC_PID': '65959647dc9090390e4ec364', 'STUDY_ID': '6595c7457f89fe169c18e35d', 'SESSION_ID': '0m6b9t6wri8', 'platform': 'prolific'}",[],,,,,,,,,,,,,,,,
,,,0,fullscreen,1,13883,thesis_experiment,65959647dc9090390e4ec364,6595c7457f89fe169c18e35d,0m6b9t6wri8,prolific,2024-01-03T20:53:20Z,competent,2024-01-03T20:59:03Z,341966,"""192.168.0.4""",12/21/23,h9jfzlzs0khyj5g,FALSE,3878987065-exa-5831488301-mple,1.70432E+12,https://app.prolific.com/submissions/complete?cc=C9DG4TYX,"{'PROLIFIC_PID': '65959647dc9090390e4ec364', 'STUDY_ID': '6595c7457f89fe169c18e35d', 'SESSION_ID': '0m6b9t6wri8', 'platform': 'prolific'}","[{'event': 'fullscreenenter', 'time': 13787}]",TRUE,1440,900,1440,865,,,,,,,,,,,
2637,src/html/attrition.html,attrition,0,render-mustache-template,2,16849,thesis_experiment,65959647dc9090390e4ec364,6595c7457f89fe169c18e35d,0m6b9t6wri8,prolific,2024-01-03T20:53:20Z,competent,2024-01-03T20:59:03Z,341966,"""192.168.0.4""",12/21/23,h9jfzlzs0khyj5g,FALSE,3878987065-exa-5831488301-mple,1.70432E+12,https://app.prolific.com/submissions/complete?cc=C9DG4TYX,"{'PROLIFIC_PID': '65959647dc9090390e4ec364', 'STUDY_ID': '6595c7457f89fe169c18e35d', 'SESSION_ID': '0m6b9t6wri8', 'platform': 'prolific'}",[],,,,,,attritionForm,#attritionForm,0,,,,,,,,
1288.5999999940395,,,0,instructions,3,18244,thesis_experiment,65959647dc9090390e4ec364,6595c7457f89fe169c18e35d,0m6b9t6wri8,prolific,2024-01-03T20:53:20Z,competent,2024-01-03T20:59:03Z,341966,"""192.168.0.4""",12/21/23,h9jfzlzs0khyj5g,FALSE,3878987065-exa-5831488301-mple,1.70432E+12,https://app.prolific.com/submissions/complete?cc=C9DG4TYX,"{'PROLIFIC_PID': '65959647dc9090390e4ec364', 'STUDY_ID': '6595c7457f89fe169c18e35d', 'SESSION_ID': '0m6b9t6wri8', 'platform': 'prolific'}",[],,,,,,,,,"[{'page_index': 0, 'viewing_time': 1288.0999999940395}]",,,,,,,
6135,,main,0,image-slider-response,4,24483,thesis_experiment,65959647dc9090390e4ec364,6595c7457f89fe169c18e35d,0m6b9t6wri8,prolific,2024-01-03T20:53:20Z,competent,2024-01-03T20:59:03Z,341966,"""192.168.0.4""",12/21/23,h9jfzlzs0khyj5g,FALSE,3878987065-exa-5831488301-mple,1.70432E+12,https://app.prolific.com/submissions/complete?cc=C9DG4TYX,"{'PROLIFIC_PID': '65959647dc9090390e4ec364', 'STUDY_ID': '6595c7457f89fe169c18e35d', 'SESSION_ID': '0m6b9t6wri8', 'platform': 'prolific'}",[],,,,,,,,,,51,51,4213,[51],[4213],src/images/AllPic/19.jpeg,
1745,,main,0,image-slider-response,5,26331,thesis_experiment,65959647dc9090390e4ec364,6595c7457f89fe169c18e35d,0m6b9t6wri8,prolific,2024-01-03T20:53:20Z,competent,2024-01-03T20:59:03Z,341966,"""192.168.0.4""",12/21/23,h9jfzlzs0khyj5g,FALSE,3878987065-exa-5831488301-mple,1.70432E+12,https://app.prolific.com/submissions/complete?cc=C9DG4TYX,"{'PROLIFIC_PID': '65959647dc9090390e4ec364', 'STUDY_ID': '6595c7457f89fe169c18e35d', 'SESSION_ID': '0m6b9t6wri8', 'platform': 'prolific'}",[],,,,,,,,,,54,54,887,[54],[887],src/images/AllPic/25.jpeg,
1482,,main,0,image-slider-response,6,27920,thesis_experiment,65959647dc9090390e4ec364,6595c7457f89fe169c18e35d,0m6b9t6wri8,prolific,2024-01-03T20:53:20Z,competent,2024-01-03T20:59:03Z,341966,"""192.168.0.4""",12/21/23,h9jfzlzs0khyj5g,FALSE,3878987065-exa-5831488301-mple,1.70432E+12,https://app.prolific.com/submissions/complete?cc=C9DG4TYX,"{'PROLIFIC_PID': '65959647dc9090390e4ec364', 'STUDY_ID': '6595c7457f89fe169c18e35d', 'SESSION_ID': '0m6b9t6wri8', 'platform': 'prolific'}",[],,,,,,,,,,54,54,827,[54],[827],src/images/AllPic/13.jpeg,
1566,,main,0,image-slider-response,7,29591,thesis_experiment,65959647dc9090390e4ec364,6595c7457f89fe169c18e35d,0m6b9t6wri8,prolific,2024-01-03T20:53:20Z,competent,2024-01-03T20:59:03Z,341966,"""192.168.0.4""",12/21/23,h9jfzlzs0khyj5g,FALSE,3878987065-exa-5831488301-mple,1.70432E+12,https://app.prolific.com/submissions/complete?cc=C9DG4TYX,"{'PROLIFIC_PID': '65959647dc9090390e4ec364', 'STUDY_ID': '6595c7457f89fe169c18e35d', 'SESSION_ID': '0m6b9t6wri8', 'platform': 'prolific'}",[],,,,,,,,,,56,56,860,[56],[860],src/images/AllPic/11.jpeg,
1832,,main,0,image-slider-response,8,31528,thesis_experiment,65959647dc9090390e4ec364,6595c7457f89fe169c18e35d,0m6b9t6wri8,prolific,2024-01-03T20:53:20Z,competent,2024-01-03T20:59:03Z,341966,"""192.168.0.4""",12/21/23,h9jfzlzs0khyj5g,FALSE,3878987065-exa-5831488301-mple,1.70432E+12,https://app.prolific.com/submissions/complete?cc=C9DG4TYX,"{'PROLIFIC_PID': '65959647dc9090390e4ec364', 'STUDY_ID': '6595c7457f89fe169c18e35d', 'SESSION_ID': '0m6b9t6wri8', 'platform': 'prolific'}",[],,,,,,,,,,56,56,860,[56],[860],src/images/AllPic/5.jpeg,
1897,,main,0,image-slider-response,9,33531,thesis_experiment,65959647dc9090390e4ec364,6595c7457f89fe169c18e35d,0m6b9t6wri8,prolific,2024-01-03T20:53:20Z,competent,2024-01-03T20:59:03Z,341966,"""192.168.0.4""",12/21/23,h9jfzlzs0khyj5g,FALSE,3878987065-exa-5831488301-mple,1.70432E+12,https://app.prolific.com/submissions/complete?cc=C9DG4TYX,"{'PROLIFIC_PID': '65959647dc9090390e4ec364', 'STUDY_ID': '6595c7457f89fe169c18e35d', 'SESSION_ID': '0m6b9t6wri8', 'platform': 'prolific'}",[],,,,,,,,,,52,52,1259,[52],[1259],src/images/AllPic/35.jpeg,
1532,,main,0,image-slider-response,10,35167,thesis_experiment,65959647dc9090390e4ec364,6595c7457f89fe169c18e35d,0m6b9t6wri8,prolific,2024-01-03T20:53:20Z,competent,2024-01-03T20:59:03Z,341966,"""192.168.0.4""",12/21/23,h9jfzlzs0khyj5g,FALSE,3878987065-exa-5831488301-mple,1.70432E+12,https://app.prolific.com/submissions/complete?cc=C9DG4TYX,"{'PROLIFIC_PID': '65959647dc9090390e4ec364', 'STUDY_ID': '6595c7457f89fe169c18e35d', 'SESSION_ID': '0m6b9t6wri8', 'platform': 'prolific'}",[],,,,,,,,,,54,54,876,[54],[876],src/images/AllPic/4.jpeg,
1989,,main,0,image-slider-response,11,37259,thesis_experiment,65959647dc9090390e4ec364,6595c7457f89fe169c18e35d,0m6b9t6wri8,prolific,2024-01-03T20:53:20Z,competent,2024-01-03T20:59:03Z,341966,"""192.168.0.4""",12/21/23,h9jfzlzs0khyj5g,FALSE,3878987065-exa-5831488301-mple,1.70432E+12,https://app.prolific.com/submissions/complete?cc=C9DG4TYX,"{'PROLIFIC_PID': '65959647dc9090390e4ec364', 'STUDY_ID': '6595c7457f89fe169c18e35d', 'SESSION_ID': '0m6b9t6wri8', 'platform': 'prolific'}",[],,,,,,,,,,55,55,1313,[55],[1313],src/images/AllPic/34.jpeg,
1565,,main,0,image-slider-response,12,38927,thesis_experiment,65959647dc9090390e4ec364,6595c7457f89fe169c18e35d,0m6b9t6wri8,prolific,2024-01-03T20:53:20Z,competent,2024-01-03T20:59:03Z,341966,"""192.168.0.4""",12/21/23,h9jfzlzs0khyj5g,FALSE,3878987065-exa-5831488301-mple,1.70432E+12,https://app.prolific.com/submissions/complete?cc=C9DG4TYX,"{'PROLIFIC_PID': '65959647dc9090390e4ec364', 'STUDY_ID': '6595c7457f89fe169c18e35d', 'SESSION_ID': '0m6b9t6wri8', 'platform': 'prolific'}",[],,,,,,,,,,54,54,857,[54],[857],src/images/AllPic/23.jpeg,
1650,,main,0,image-slider-response,13,40679,thesis_experiment,65959647dc9090390e4ec364,6595c7457f89fe169c18e35d,0m6b9t6wri8,prolific,2024-01-03T20:53:20Z,competent,2024-01-03T20:59:03Z,341966,"""192.168.0.4""",12/21/23,h9jfzlzs0khyj5g,FALSE,3878987065-exa-5831488301-mple,1.70432E+12,https://app.prolific.com/submissions/complete?cc=C9DG4TYX,"{'PROLIFIC_PID': '65959647dc9090390e4ec364', 'STUDY_ID': '6595c7457f89fe169c18e35d', 'SESSION_ID': '0m6b9t6wri8', 'platform': 'prolific'}",[],,,,,,,,,,55,55,977,[55],[977],src/images/AllPic/8.jpeg,
1919,,main,0,image-slider-response,14,42704,thesis_experiment,65959647dc9090390e4ec364,6595c7457f89fe169c18e35d,0m6b9t6wri8,prolific,2024-01-03T20:53:20Z,competent,2024-01-03T20:59:03Z,341966,"""192.168.0.4""",12/21/23,h9jfzlzs0khyj5g,FALSE,3878987065-exa-5831488301-mple,1.70432E+12,https://app.prolific.com/submissions/complete?cc=C9DG4TYX,"{'PROLIFIC_PID': '65959647dc9090390e4ec364', 'STUDY_ID': '6595c7457f89fe169c18e35d', 'SESSION_ID': '0m6b9t6wri8', 'platform': 'prolific'}",[],,,,,,,,,,58,58,1346,[58],[1346],src/images/AllPic/24.jpeg,
1464,,main,0,image-slider-response,15,44274,thesis_experiment,65959647dc9090390e4ec364,6595c7457f89fe169c18e35d,0m6b9t6wri8,prolific,2024-01-03T20:53:20Z,competent,2024-01-03T20:59:03Z,341966,"""192.168.0.4""",12/21/23,h9jfzlzs0khyj5g,FALSE,3878987065-exa-5831488301-mple,1.70432E+12,https://app.prolific.com/submissions/complete?cc=C9DG4TYX,"{'PROLIFIC_PID': '65959647dc9090390e4ec364', 'STUDY_ID': '6595c7457f89fe169c18e35d', 'SESSION_ID': '0m6b9t6wri8', 'platform': 'prolific'}",[],,,,,,,,,,59,59,889,[59],[889],src/images/AllPic/40.jpeg,
1836,,main,0,image-slider-response,16,46213,thesis_experiment,65959647dc9090390e4ec364,6595c7457f89fe169c18e35d,0m6b9t6wri8,prolific,2024-01-03T20:53:20Z,competent,2024-01-03T20:59:03Z,341966,"""192.168.0.4""",12/21/23,h9jfzlzs0khyj5g,FALSE,3878987065-exa-5831488301-mple,1.70432E+12,https://app.prolific.com/submissions/complete?cc=C9DG4TYX,"{'PROLIFIC_PID': '65959647dc9090390e4ec364', 'STUDY_ID': '6595c7457f89fe169c18e35d', 'SESSION_ID': '0m6b9t6wri8', 'platform': 'prolific'}",[],,,,,,,,,,59,59,1297,[59],[1298],src/images/AllPic/12.jpeg,
2473,,main,0,image-slider-response,17,48791,thesis_experiment,65959647dc9090390e4ec364,6595c7457f89fe169c18e35d,0m6b9t6wri8,prolific,2024-01-03T20:53:20Z,competent,2024-01-03T20:59:03Z,341966,"""192.168.0.4""",12/21/23,h9jfzlzs0khyj5g,FALSE,3878987065-exa-5831488301-mple,1.70432E+12,https://app.prolific.com/submissions/complete?cc=C9DG4TYX,"{'PROLIFIC_PID': '65959647dc9090390e4ec364', 'STUDY_ID': '6595c7457f89fe169c18e35d', 'SESSION_ID': '0m6b9t6wri8', 'platform': 'prolific'}",[],,,,,,,,,,54,54,1178,[54],[1178],src/images/AllPic/30.jpeg,
2149,,main,0,image-slider-response,18,51046,thesis_experiment,65959647dc9090390e4ec364,6595c7457f89fe169c18e35d,0m6b9t6wri8,prolific,2024-01-03T20:53:20Z,competent,2024-01-03T20:59:03Z,341966,"""192.168.0.4""",12/21/23,h9jfzlzs0khyj5g,FALSE,3878987065-exa-5831488301-mple,1.70432E+12,https://app.prolific.com/submissions/complete?cc=C9DG4TYX,"{'PROLIFIC_PID': '65959647dc9090390e4ec364', 'STUDY_ID': '6595c7457f89fe169c18e35d', 'SESSION_ID': '0m6b9t6wri8', 'platform': 'prolific'}",[],,,,,,,,,,56,56,1426,[56],[1426],src/images/AllPic/20.jpeg,
2555,,main,0,image-slider-response,19,53708,thesis_experiment,65959647dc9090390e4ec364,6595c7457f89fe169c18e35d,0m6b9t6wri8,prolific,2024-01-03T20:53:20Z,competent,2024-01-03T20:59:03Z,341966,"""192.168.0.4""",12/21/23,h9jfzlzs0khyj5g,FALSE,3878987065-exa-5831488301-mple,1.70432E+12,https://app.prolific.com/submissions/complete?cc=C9DG4TYX,"{'PROLIFIC_PID': '65959647dc9090390e4ec364', 'STUDY_ID': '6595c7457f89fe169c18e35d', 'SESSION_ID': '0m6b9t6wri8', 'platform': 'prolific'}",[],,,,,,,,,,56,56,1898,[56],[1898],src/images/AllPic/2.jpeg,
1598,,main,0,image-slider-response,20,55410,thesis_experiment,65959647dc9090390e4ec364,6595c7457f89fe169c18e35d,0m6b9t6wri8,prolific,2024-01-03T20:53:20Z,competent,2024-01-03T20:59:03Z,341966,"""192.168.0.4""",12/21/23,h9jfzlzs0khyj5g,FALSE,3878987065-exa-5831488301-mple,1.70432E+12,https://app.prolific.com/submissions/complete?cc=C9DG4TYX,"{'PROLIFIC_PID': '65959647dc9090390e4ec364', 'STUDY_ID': '6595c7457f89fe169c18e35d', 'SESSION_ID': '0m6b9t6wri8', 'platform': 'prolific'}",[],,,,,,,,,,57,57,875,[57],[875],src/images/AllPic/16.jpeg,
1516,,main,0,image-slider-response,21,57030,thesis_experiment,65959647dc9090390e4ec364,6595c7457f89fe169c18e35d,0m6b9t6wri8,prolific,2024-01-03T20:53:20Z,competent,2024-01-03T20:59:03Z,341966,"""192.168.0.4""",12/21/23,h9jfzlzs0khyj5g,FALSE,3878987065-exa-5831488301-mple,1.70432E+12,https://app.prolific.com/submissions/complete?cc=C9DG4TYX,"{'PROLIFIC_PID': '65959647dc9090390e4ec364', 'STUDY_ID': '6595c7457f89fe169c18e35d', 'SESSION_ID': '0m6b9t6wri8', 'platform': 'prolific'}",[],,,,,,,,,,61,61,940,[61],[940],src/images/AllPic/27.jpeg,
1717,,main,0,image-slider-response,22,58851,thesis_experiment,65959647dc9090390e4ec364,6595c7457f89fe169c18e35d,0m6b9t6wri8,prolific,2024-01-03T20:53:20Z,competent,2024-01-03T20:59:03Z,341966,"""192.168.0.4""",12/21/23,h9jfzlzs0khyj5g,FALSE,3878987065-exa-5831488301-mple,1.70432E+12,https://app.prolific.com/submissions/complete?cc=C9DG4TYX,"{'PROLIFIC_PID': '65959647dc9090390e4ec364', 'STUDY_ID': '6595c7457f89fe169c18e35d', 'SESSION_ID': '0m6b9t6wri8', 'platform': 'prolific'}",[],,,,,,,,,,61,61,1143,[61],[1143],src/images/AllPic/28.jpeg,
1533,,main,0,image-slider-response,23,60488,thesis_experiment,65959647dc9090390e4ec364,6595c7457f89fe169c18e35d,0m6b9t6wri8,prolific,2024-01-03T20:53:20Z,competent,2024-01-03T20:59:03Z,341966,"""192.168.0.4""",12/21/23,h9jfzlzs0khyj5g,FALSE,3878987065-exa-5831488301-mple,1.70432E+12,https://app.prolific.com/submissions/complete?cc=C9DG4TYX,"{'PROLIFIC_PID': '65959647dc9090390e4ec364', 'STUDY_ID': '6595c7457f89fe169c18e35d', 'SESSION_ID': '0m6b9t6wri8', 'platform': 'prolific'}",[],,,,,,,,,,57,57,909,[57],[909],src/images/AllPic/7.jpeg,
1889,,main,0,image-slider-response,24,62480,thesis_experiment,65959647dc9090390e4ec364,6595c7457f89fe169c18e35d,0m6b9t6wri8,prolific,2024-01-03T20:53:20Z,competent,2024-01-03T20:59:03Z,341966,"""192.168.0.4""",12/21/23,h9jfzlzs0khyj5g,FALSE,3878987065-exa-5831488301-mple,1.70432E+12,https://app.prolific.com/submissions/complete?cc=C9DG4TYX,"{'PROLIFIC_PID': '65959647dc9090390e4ec364', 'STUDY_ID': '6595c7457f89fe169c18e35d', 'SESSION_ID': '0m6b9t6wri8', 'platform': 'prolific'}",[],,,,,,,,,,58,58,1298,[58],[1298],src/images/AllPic/9.jpeg,
1732,,main,0,image-slider-response,25,64315,thesis_experiment,65959647dc9090390e4ec364,6595c7457f89fe169c18e35d,0m6b9t6wri8,prolific,2024-01-03T20:53:20Z,competent,2024-01-03T20:59:03Z,341966,"""192.168.0.4""",12/21/23,h9jfzlzs0khyj5g,FALSE,3878987065-exa-5831488301-mple,1.70432E+12,https://app.prolific.com/submissions/complete?cc=C9DG4TYX,"{'PROLIFIC_PID': '65959647dc9090390e4ec364', 'STUDY_ID': '6595c7457f89fe169c18e35d', 'SESSION_ID': '0m6b9t6wri8', 'platform': 'prolific'}",[],,,,,,,,,,58,58,1106,[58],[1106],src/images/AllPic/1.jpeg,
1582,,main,0,image-slider-response,26,66000,thesis_experiment,65959647dc9090390e4ec364,6595c7457f89fe169c18e35d,0m6b9t6wri8,prolific,2024-01-03T20:53:20Z,competent,2024-01-03T20:59:03Z,341966,"""192.168.0.4""",12/21/23,h9jfzlzs0khyj5g,FALSE,3878987065-exa-5831488301-mple,1.70432E+12,https://app.prolific.com/submissions/complete?cc=C9DG4TYX,"{'PROLIFIC_PID': '65959647dc9090390e4ec364', 'STUDY_ID': '6595c7457f89fe169c18e35d', 'SESSION_ID': '0m6b9t6wri8', 'platform': 'prolific'}",[],,,,,,,,,,59,59,875,[59],[875],src/images/AllPic/14.jpeg,
1585,,main,0,image-slider-response,27,67688,thesis_experiment,65959647dc9090390e4ec364,6595c7457f89fe169c18e35d,0m6b9t6wri8,prolific,2024-01-03T20:53:20Z,competent,2024-01-03T20:59:03Z,341966,"""192.168.0.4""",12/21/23,h9jfzlzs0khyj5g,FALSE,3878987065-exa-5831488301-mple,1.70432E+12,https://app.prolific.com/submissions/complete?cc=C9DG4TYX,"{'PROLIFIC_PID': '65959647dc9090390e4ec364', 'STUDY_ID': '6595c7457f89fe169c18e35d', 'SESSION_ID': '0m6b9t6wri8', 'platform': 'prolific'}",[],,,,,,,,,,60,60,1030,[60],[1030],src/images/AllPic/6.jpeg,
1584,,main,0,image-slider-response,28,69374,thesis_experiment,65959647dc9090390e4ec364,6595c7457f89fe169c18e35d,0m6b9t6wri8,prolific,2024-01-03T20:53:20Z,competent,2024-01-03T20:59:03Z,341966,"""192.168.0.4""",12/21/23,h9jfzlzs0khyj5g,FALSE,3878987065-exa-5831488301-mple,1.70432E+12,https://app.prolific.com/submissions/complete?cc=C9DG4TYX,"{'PROLIFIC_PID': '65959647dc9090390e4ec364', 'STUDY_ID': '6595c7457f89fe169c18e35d', 'SESSION_ID': '0m6b9t6wri8', 'platform': 'prolific'}",[],,,,,,,,,,62,62,1012,[62],[1012],src/images/AllPic/26.jpeg,
1578,,main,0,image-slider-response,29,71058,thesis_experiment,65959647dc9090390e4ec364,6595c7457f89fe169c18e35d,0m6b9t6wri8,prolific,2024-01-03T20:53:20Z,competent,2024-01-03T20:59:03Z,341966,"""192.168.0.4""",12/21/23,h9jfzlzs0khyj5g,FALSE,3878987065-exa-5831488301-mple,1.70432E+12,https://app.prolific.com/submissions/complete?cc=C9DG4TYX,"{'PROLIFIC_PID': '65959647dc9090390e4ec364', 'STUDY_ID': '6595c7457f89fe169c18e35d', 'SESSION_ID': '0m6b9t6wri8', 'platform': 'prolific'}",[],,,,,,,,,,60,60,953,[60],[953],src/images/AllPic/36.jpeg,
1985,,main,0,image-slider-response,30,73149,thesis_experiment,65959647dc9090390e4ec364,6595c7457f89fe169c18e35d,0m6b9t6wri8,prolific,2024-01-03T20:53:20Z,competent,2024-01-03T20:59:03Z,341966,"""192.168.0.4""",12/21/23,h9jfzlzs0khyj5g,FALSE,3878987065-exa-5831488301-mple,1.70432E+12,https://app.prolific.com/submissions/complete?cc=C9DG4TYX,"{'PROLIFIC_PID': '65959647dc9090390e4ec364', 'STUDY_ID': '6595c7457f89fe169c18e35d', 'SESSION_ID': '0m6b9t6wri8', 'platform': 'prolific'}",[],,,,,,,,,,61,61,1359,[61],[1359],src/images/AllPic/38.jpeg,
1667,,main,0,image-slider-response,31,74922,thesis_experiment,65959647dc9090390e4ec364,6595c7457f89fe169c18e35d,0m6b9t6wri8,prolific,2024-01-03T20:53:20Z,competent,2024-01-03T20:59:03Z,341966,"""192.168.0.4""",12/21/23,h9jfzlzs0khyj5g,FALSE,3878987065-exa-5831488301-mple,1.70432E+12,https://app.prolific.com/submissions/complete?cc=C9DG4TYX,"{'PROLIFIC_PID': '65959647dc9090390e4ec364', 'STUDY_ID': '6595c7457f89fe169c18e35d', 'SESSION_ID': '0m6b9t6wri8', 'platform': 'prolific'}",[],,,,,,,,,,61,61,1029,[61],[1029],src/images/AllPic/3.jpeg,
1602,,main,0,image-slider-response,32,76627,thesis_experiment,65959647dc9090390e4ec364,6595c7457f89fe169c18e35d,0m6b9t6wri8,prolific,2024-01-03T20:53:20Z,competent,2024-01-03T20:59:03Z,341966,"""192.168.0.4""",12/21/23,h9jfzlzs0khyj5g,FALSE,3878987065-exa-5831488301-mple,1.70432E+12,https://app.prolific.com/submissions/complete?cc=C9DG4TYX,"{'PROLIFIC_PID': '65959647dc9090390e4ec364', 'STUDY_ID': '6595c7457f89fe169c18e35d', 'SESSION_ID': '0m6b9t6wri8', 'platform': 'prolific'}",[],,,,,,,,,,61,61,979,[61],[979],src/images/AllPic/37.jpeg,
1697,,main,0,image-slider-response,33,78431,thesis_experiment,65959647dc9090390e4ec364,6595c7457f89fe169c18e35d,0m6b9t6wri8,prolific,2024-01-03T20:53:20Z,competent,2024-01-03T20:59:03Z,341966,"""192.168.0.4""",12/21/23,h9jfzlzs0khyj5g,FALSE,3878987065-exa-5831488301-mple,1.70432E+12,https://app.prolific.com/submissions/complete?cc=C9DG4TYX,"{'PROLIFIC_PID': '65959647dc9090390e4ec364', 'STUDY_ID': '6595c7457f89fe169c18e35d', 'SESSION_ID': '0m6b9t6wri8', 'platform': 'prolific'}",[],,,,,,,,,,62,62,1138,[62],[1138],src/images/AllPic/15.jpeg,
1884,,main,0,image-slider-response,34,80418,thesis_experiment,65959647dc9090390e4ec364,6595c7457f89fe169c18e35d,0m6b9t6wri8,prolific,2024-01-03T20:53:20Z,competent,2024-01-03T20:59:03Z,341966,"""192.168.0.4""",12/21/23,h9jfzlzs0khyj5g,FALSE,3878987065-exa-5831488301-mple,1.70432E+12,https://app.prolific.com/submissions/complete?cc=C9DG4TYX,"{'PROLIFIC_PID': '65959647dc9090390e4ec364', 'STUDY_ID': '6595c7457f89fe169c18e35d', 'SESSION_ID': '0m6b9t6wri8', 'platform': 'prolific'}",[],,,,,,,,,,62,62,809,[62],[809],src/images/AllPic/32.jpeg,
1807,,main,0,image-slider-response,35,82328,thesis_experiment,65959647dc9090390e4ec364,6595c7457f89fe169c18e35d,0m6b9t6wri8,prolific,2024-01-03T20:53:20Z,competent,2024-01-03T20:59:03Z,341966,"""192.168.0.4""",12/21/23,h9jfzlzs0khyj5g,FALSE,3878987065-exa-5831488301-mple,1.70432E+12,https://app.prolific.com/submissions/complete?cc=C9DG4TYX,"{'PROLIFIC_PID': '65959647dc9090390e4ec364', 'STUDY_ID': '6595c7457f89fe169c18e35d', 'SESSION_ID': '0m6b9t6wri8', 'platform': 'prolific'}",[],,,,,,,,,,63,63,1235,[63],[1235],src/images/AllPic/29.jpeg,
1855,,main,0,image-slider-response,36,84287,thesis_experiment,65959647dc9090390e4ec364,6595c7457f89fe169c18e35d,0m6b9t6wri8,prolific,2024-01-03T20:53:20Z,competent,2024-01-03T20:59:03Z,341966,"""192.168.0.4""",12/21/23,h9jfzlzs0khyj5g,FALSE,3878987065-exa-5831488301-mple,1.70432E+12,https://app.prolific.com/submissions/complete?cc=C9DG4TYX,"{'PROLIFIC_PID': '65959647dc9090390e4ec364', 'STUDY_ID': '6595c7457f89fe169c18e35d', 'SESSION_ID': '0m6b9t6wri8', 'platform': 'prolific'}",[],,,,,,,,,,63,63,1198,[63],[1198],src/images/AllPic/10.jpeg,
1830,,main,0,image-slider-response,37,86223,thesis_experiment,65959647dc9090390e4ec364,6595c7457f89fe169c18e35d,0m6b9t6wri8,prolific,2024-01-03T20:53:20Z,competent,2024-01-03T20:59:03Z,341966,"""192.168.0.4""",12/21/23,h9jfzlzs0khyj5g,FALSE,3878987065-exa-5831488301-mple,1.70432E+12,https://app.prolific.com/submissions/complete?cc=C9DG4TYX,"{'PROLIFIC_PID': '65959647dc9090390e4ec364', 'STUDY_ID': '6595c7457f89fe169c18e35d', 'SESSION_ID': '0m6b9t6wri8', 'platform': 'prolific'}",[],,,,,,,,,,62,62,939,[62],[939],src/images/AllPic/17.jpeg,
1451,,main,0,image-slider-response,38,87778,thesis_experiment,65959647dc9090390e4ec364,6595c7457f89fe169c18e35d,0m6b9t6wri8,prolific,2024-01-03T20:53:20Z,competent,2024-01-03T20:59:03Z,341966,"""192.168.0.4""",12/21/23,h9jfzlzs0khyj5g,FALSE,3878987065-exa-5831488301-mple,1.70432E+12,https://app.prolific.com/submissions/complete?cc=C9DG4TYX,"{'PROLIFIC_PID': '65959647dc9090390e4ec364', 'STUDY_ID': '6595c7457f89fe169c18e35d', 'SESSION_ID': '0m6b9t6wri8', 'platform': 'prolific'}",[],,,,,,,,,,61,61,861,[61],[861],src/images/AllPic/31.jpeg,
1351,,main,0,image-slider-response,39,89232,thesis_experiment,65959647dc9090390e4ec364,6595c7457f89fe169c18e35d,0m6b9t6wri8,prolific,2024-01-03T20:53:20Z,competent,2024-01-03T20:59:03Z,341966,"""192.168.0.4""",12/21/23,h9jfzlzs0khyj5g,FALSE,3878987065-exa-5831488301-mple,1.70432E+12,https://app.prolific.com/submissions/complete?cc=C9DG4TYX,"{'PROLIFIC_PID': '65959647dc9090390e4ec364', 'STUDY_ID': '6595c7457f89fe169c18e35d', 'SESSION_ID': '0m6b9t6wri8', 'platform': 'prolific'}",[],,,,,,,,,,63,63,878,[63],[878],src/images/AllPic/42.jpeg,
1830,,main,0,image-slider-response,40,91165,thesis_experiment,65959647dc9090390e4ec364,6595c7457f89fe169c18e35d,0m6b9t6wri8,prolific,2024-01-03T20:53:20Z,competent,2024-01-03T20:59:03Z,341966,"""192.168.0.4""",12/21/23,h9jfzlzs0khyj5g,FALSE,3878987065-exa-5831488301-mple,1.70432E+12,https://app.prolific.com/submissions/complete?cc=C9DG4TYX,"{'PROLIFIC_PID': '65959647dc9090390e4ec364', 'STUDY_ID': '6595c7457f89fe169c18e35d', 'SESSION_ID': '0m6b9t6wri8', 'platform': 'prolific'}",[],,,,,,,,,,65,65,1318,[65],[1318],src/images/AllPic/18.jpeg,
1428,,main,0,image-slider-response,41,92699,thesis_experiment,65959647dc9090390e4ec364,6595c7457f89fe169c18e35d,0m6b9t6wri8,prolific,2024-01-03T20:53:20Z,competent,2024-01-03T20:59:03Z,341966,"""192.168.0.4""",12/21/23,h9jfzlzs0khyj5g,FALSE,3878987065-exa-5831488301-mple,1.70432E+12,https://app.prolific.com/submissions/complete?cc=C9DG4TYX,"{'PROLIFIC_PID': '65959647dc9090390e4ec364', 'STUDY_ID': '6595c7457f89fe169c18e35d', 'SESSION_ID': '0m6b9t6wri8', 'platform': 'prolific'}",[],,,,,,,,,,65,65,921,[65],[921],src/images/AllPic/39.jpeg,
1955,,main,0,image-slider-response,42,94758,thesis_experiment,65959647dc9090390e4ec364,6595c7457f89fe169c18e35d,0m6b9t6wri8,prolific,2024-01-03T20:53:20Z,competent,2024-01-03T20:59:03Z,341966,"""192.168.0.4""",12/21/23,h9jfzlzs0khyj5g,FALSE,3878987065-exa-5831488301-mple,1.70432E+12,https://app.prolific.com/submissions/complete?cc=C9DG4TYX,"{'PROLIFIC_PID': '65959647dc9090390e4ec364', 'STUDY_ID': '6595c7457f89fe169c18e35d', 'SESSION_ID': '0m6b9t6wri8', 'platform': 'prolific'}",[],,,,,,,,,,63,63,1330,[63],[1330],src/images/AllPic/22.jpeg,
1447,,main,0,image-slider-response,43,96310,thesis_experiment,65959647dc9090390e4ec364,6595c7457f89fe169c18e35d,0m6b9t6wri8,prolific,2024-01-03T20:53:20Z,competent,2024-01-03T20:59:03Z,341966,"""192.168.0.4""",12/21/23,h9jfzlzs0khyj5g,FALSE,3878987065-exa-5831488301-mple,1.70432E+12,https://app.prolific.com/submissions/complete?cc=C9DG4TYX,"{'PROLIFIC_PID': '65959647dc9090390e4ec364', 'STUDY_ID': '6595c7457f89fe169c18e35d', 'SESSION_ID': '0m6b9t6wri8', 'platform': 'prolific'}",[],,,,,,,,,,64,64,906,[64],[906],src/images/AllPic/21.jpeg,
1618,,main,0,image-slider-response,44,98031,thesis_experiment,65959647dc9090390e4ec364,6595c7457f89fe169c18e35d,0m6b9t6wri8,prolific,2024-01-03T20:53:20Z,competent,2024-01-03T20:59:03Z,341966,"""192.168.0.4""",12/21/23,h9jfzlzs0khyj5g,FALSE,3878987065-exa-5831488301-mple,1.70432E+12,https://app.prolific.com/submissions/complete?cc=C9DG4TYX,"{'PROLIFIC_PID': '65959647dc9090390e4ec364', 'STUDY_ID': '6595c7457f89fe169c18e35d', 'SESSION_ID': '0m6b9t6wri8', 'platform': 'prolific'}",[],,,,,,,,,,64,64,1008,[64],[1008],src/images/AllPic/33.jpeg,
1985,,main,0,image-slider-response,45,100120,thesis_experiment,65959647dc9090390e4ec364,6595c7457f89fe169c18e35d,0m6b9t6wri8,prolific,2024-01-03T20:53:20Z,competent,2024-01-03T20:59:03Z,341966,"""192.168.0.4""",12/21/23,h9jfzlzs0khyj5g,FALSE,3878987065-exa-5831488301-mple,1.70432E+12,https://app.prolific.com/submissions/complete?cc=C9DG4TYX,"{'PROLIFIC_PID': '65959647dc9090390e4ec364', 'STUDY_ID': '6595c7457f89fe169c18e35d', 'SESSION_ID': '0m6b9t6wri8', 'platform': 'prolific'}",[],,,,,,,,,,65,65,1277,[65],[1277],src/images/AllPic/41.jpeg,
1919,,main,0,image-slider-response,46,102142,thesis_experiment,65959647dc9090390e4ec364,6595c7457f89fe169c18e35d,0m6b9t6wri8,prolific,2024-01-03T20:53:20Z,competent,2024-01-03T20:59:03Z,341966,"""192.168.0.4""",12/21/23,h9jfzlzs0khyj5g,FALSE,3878987065-exa-5831488301-mple,1.70432E+12,https://app.prolific.com/submissions/complete?cc=C9DG4TYX,"{'PROLIFIC_PID': '65959647dc9090390e4ec364', 'STUDY_ID': '6595c7457f89fe169c18e35d', 'SESSION_ID': '0m6b9t6wri8', 'platform': 'prolific'}",[],,,,,,,,,,67,67,1298,[67],[1298],src/images/AllPic/79.jpeg,
1634,,main,0,image-slider-response,47,103880,thesis_experiment,65959647dc9090390e4ec364,6595c7457f89fe169c18e35d,0m6b9t6wri8,prolific,2024-01-03T20:53:20Z,competent,2024-01-03T20:59:03Z,341966,"""192.168.0.4""",12/21/23,h9jfzlzs0khyj5g,FALSE,3878987065-exa-5831488301-mple,1.70432E+12,https://app.prolific.com/submissions/complete?cc=C9DG4TYX,"{'PROLIFIC_PID': '65959647dc9090390e4ec364', 'STUDY_ID': '6595c7457f89fe169c18e35d', 'SESSION_ID': '0m6b9t6wri8', 'platform': 'prolific'}",[],,,,,,,,,,68,68,1061,[68],[1061],src/images/AllPic/63.jpeg,
1831,,main,0,image-slider-response,48,105815,thesis_experiment,65959647dc9090390e4ec364,6595c7457f89fe169c18e35d,0m6b9t6wri8,prolific,2024-01-03T20:53:20Z,competent,2024-01-03T20:59:03Z,341966,"""192.168.0.4""",12/21/23,h9jfzlzs0khyj5g,FALSE,3878987065-exa-5831488301-mple,1.70432E+12,https://app.prolific.com/submissions/complete?cc=C9DG4TYX,"{'PROLIFIC_PID': '65959647dc9090390e4ec364', 'STUDY_ID': '6595c7457f89fe169c18e35d', 'SESSION_ID': '0m6b9t6wri8', 'platform': 'prolific'}",[],,,,,,,,,,66,66,1091,[66],[1091],src/images/AllPic/44.jpeg,
1750,,main,0,image-slider-response,49,107668,thesis_experiment,65959647dc9090390e4ec364,6595c7457f89fe169c18e35d,0m6b9t6wri8,prolific,2024-01-03T20:53:20Z,competent,2024-01-03T20:59:03Z,341966,"""192.168.0.4""",12/21/23,h9jfzlzs0khyj5g,FALSE,3878987065-exa-5831488301-mple,1.70432E+12,https://app.prolific.com/submissions/complete?cc=C9DG4TYX,"{'PROLIFIC_PID': '65959647dc9090390e4ec364', 'STUDY_ID': '6595c7457f89fe169c18e35d', 'SESSION_ID': '0m6b9t6wri8', 'platform': 'prolific'}",[],,,,,,,,,,66,66,1092,[66],[1092],src/images/AllPic/71.jpeg,
1748,,main,0,image-slider-response,50,109522,thesis_experiment,65959647dc9090390e4ec364,6595c7457f89fe169c18e35d,0m6b9t6wri8,prolific,2024-01-03T20:53:20Z,competent,2024-01-03T20:59:03Z,341966,"""192.168.0.4""",12/21/23,h9jfzlzs0khyj5g,FALSE,3878987065-exa-5831488301-mple,1.70432E+12,https://app.prolific.com/submissions/complete?cc=C9DG4TYX,"{'PROLIFIC_PID': '65959647dc9090390e4ec364', 'STUDY_ID': '6595c7457f89fe169c18e35d', 'SESSION_ID': '0m6b9t6wri8', 'platform': 'prolific'}",[],,,,,,,,,,65,65,1042,[65],[1042],src/images/AllPic/45.jpeg,
1683,,main,0,image-slider-response,51,111308,thesis_experiment,65959647dc9090390e4ec364,6595c7457f89fe169c18e35d,0m6b9t6wri8,prolific,2024-01-03T20:53:20Z,competent,2024-01-03T20:59:03Z,341966,"""192.168.0.4""",12/21/23,h9jfzlzs0khyj5g,FALSE,3878987065-exa-5831488301-mple,1.70432E+12,https://app.prolific.com/submissions/complete?cc=C9DG4TYX,"{'PROLIFIC_PID': '65959647dc9090390e4ec364', 'STUDY_ID': '6595c7457f89fe169c18e35d', 'SESSION_ID': '0m6b9t6wri8', 'platform': 'prolific'}",[],,,,,,,,,,67,67,1009,[67],[1009],src/images/AllPic/55.jpeg,
1563,,main,0,image-slider-response,52,112975,thesis_experiment,65959647dc9090390e4ec364,6595c7457f89fe169c18e35d,0m6b9t6wri8,prolific,2024-01-03T20:53:20Z,competent,2024-01-03T20:59:03Z,341966,"""192.168.0.4""",12/21/23,h9jfzlzs0khyj5g,FALSE,3878987065-exa-5831488301-mple,1.70432E+12,https://app.prolific.com/submissions/complete?cc=C9DG4TYX,"{'PROLIFIC_PID': '65959647dc9090390e4ec364', 'STUDY_ID': '6595c7457f89fe169c18e35d', 'SESSION_ID': '0m6b9t6wri8', 'platform': 'prolific'}",[],,,,,,,,,,67,67,956,[67],[956],src/images/AllPic/81.jpeg,
1581,,main,0,image-slider-response,53,114661,thesis_experiment,65959647dc9090390e4ec364,6595c7457f89fe169c18e35d,0m6b9t6wri8,prolific,2024-01-03T20:53:20Z,competent,2024-01-03T20:59:03Z,341966,"""192.168.0.4""",12/21/23,h9jfzlzs0khyj5g,FALSE,3878987065-exa-5831488301-mple,1.70432E+12,https://app.prolific.com/submissions/complete?cc=C9DG4TYX,"{'PROLIFIC_PID': '65959647dc9090390e4ec364', 'STUDY_ID': '6595c7457f89fe169c18e35d', 'SESSION_ID': '0m6b9t6wri8', 'platform': 'prolific'}",[],,,,,,,,,,67,67,923,[67],[923],src/images/AllPic/56.jpeg,
1683,,main,0,image-slider-response,54,116448,thesis_experiment,65959647dc9090390e4ec364,6595c7457f89fe169c18e35d,0m6b9t6wri8,prolific,2024-01-03T20:53:20Z,competent,2024-01-03T20:59:03Z,341966,"""192.168.0.4""",12/21/23,h9jfzlzs0khyj5g,FALSE,3878987065-exa-5831488301-mple,1.70432E+12,https://app.prolific.com/submissions/complete?cc=C9DG4TYX,"{'PROLIFIC_PID': '65959647dc9090390e4ec364', 'STUDY_ID': '6595c7457f89fe169c18e35d', 'SESSION_ID': '0m6b9t6wri8', 'platform': 'prolific'}",[],,,,,,,,,,63,63,924,[63],[925],src/images/AllPic/50.jpeg,
1583,,main,0,image-slider-response,55,118136,thesis_experiment,65959647dc9090390e4ec364,6595c7457f89fe169c18e35d,0m6b9t6wri8,prolific,2024-01-03T20:53:20Z,competent,2024-01-03T20:59:03Z,341966,"""192.168.0.4""",12/21/23,h9jfzlzs0khyj5g,FALSE,3878987065-exa-5831488301-mple,1.70432E+12,https://app.prolific.com/submissions/complete?cc=C9DG4TYX,"{'PROLIFIC_PID': '65959647dc9090390e4ec364', 'STUDY_ID': '6595c7457f89fe169c18e35d', 'SESSION_ID': '0m6b9t6wri8', 'platform': 'prolific'}",[],,,,,,,,,,64,64,958,[64],[958],src/images/AllPic/51.jpeg,
1701,,main,0,image-slider-response,56,119945,thesis_experiment,65959647dc9090390e4ec364,6595c7457f89fe169c18e35d,0m6b9t6wri8,prolific,2024-01-03T20:53:20Z,competent,2024-01-03T20:59:03Z,341966,"""192.168.0.4""",12/21/23,h9jfzlzs0khyj5g,FALSE,3878987065-exa-5831488301-mple,1.70432E+12,https://app.prolific.com/submissions/complete?cc=C9DG4TYX,"{'PROLIFIC_PID': '65959647dc9090390e4ec364', 'STUDY_ID': '6595c7457f89fe169c18e35d', 'SESSION_ID': '0m6b9t6wri8', 'platform': 'prolific'}",[],,,,,,,,,,66,66,1127,[66],[1127],src/images/AllPic/70.jpeg,
2006,,main,0,image-slider-response,57,122053,thesis_experiment,65959647dc9090390e4ec364,6595c7457f89fe169c18e35d,0m6b9t6wri8,prolific,2024-01-03T20:53:20Z,competent,2024-01-03T20:59:03Z,341966,"""192.168.0.4""",12/21/23,h9jfzlzs0khyj5g,FALSE,3878987065-exa-5831488301-mple,1.70432E+12,https://app.prolific.com/submissions/complete?cc=C9DG4TYX,"{'PROLIFIC_PID': '65959647dc9090390e4ec364', 'STUDY_ID': '6595c7457f89fe169c18e35d', 'SESSION_ID': '0m6b9t6wri8', 'platform': 'prolific'}",[],,,,,,,,,,69,69,1248,[69],[1248],src/images/AllPic/83.jpeg,
3274,,main,0,image-slider-response,58,125431,thesis_experiment,65959647dc9090390e4ec364,6595c7457f89fe169c18e35d,0m6b9t6wri8,prolific,2024-01-03T20:53:20Z,competent,2024-01-03T20:59:03Z,341966,"""192.168.0.4""",12/21/23,h9jfzlzs0khyj5g,FALSE,3878987065-exa-5831488301-mple,1.70432E+12,https://app.prolific.com/submissions/complete?cc=C9DG4TYX,"{'PROLIFIC_PID': '65959647dc9090390e4ec364', 'STUDY_ID': '6595c7457f89fe169c18e35d', 'SESSION_ID': '0m6b9t6wri8', 'platform': 'prolific'}",[],,,,,,,,,,71,71,1207,[71],[1207],src/images/AllPic/82.jpeg,
2221,,main,0,image-slider-response,59,127756,thesis_experiment,65959647dc9090390e4ec364,6595c7457f89fe169c18e35d,0m6b9t6wri8,prolific,2024-01-03T20:53:20Z,competent,2024-01-03T20:59:03Z,341966,"""192.168.0.4""",12/21/23,h9jfzlzs0khyj5g,FALSE,3878987065-exa-5831488301-mple,1.70432E+12,https://app.prolific.com/submissions/complete?cc=C9DG4TYX,"{'PROLIFIC_PID': '65959647dc9090390e4ec364', 'STUDY_ID': '6595c7457f89fe169c18e35d', 'SESSION_ID': '0m6b9t6wri8', 'platform': 'prolific'}",[],,,,,,,,,,67,67,1330,[67],[1330],src/images/AllPic/75.jpeg,
2317,,main,0,image-slider-response,60,130179,thesis_experiment,65959647dc9090390e4ec364,6595c7457f89fe169c18e35d,0m6b9t6wri8,prolific,2024-01-03T20:53:20Z,competent,2024-01-03T20:59:03Z,341966,"""192.168.0.4""",12/21/23,h9jfzlzs0khyj5g,FALSE,3878987065-exa-5831488301-mple,1.70432E+12,https://app.prolific.com/submissions/complete?cc=C9DG4TYX,"{'PROLIFIC_PID': '65959647dc9090390e4ec364', 'STUDY_ID': '6595c7457f89fe169c18e35d', 'SESSION_ID': '0m6b9t6wri8', 'platform': 'prolific'}",[],,,,,,,,,,65,65,1629,[65],[1629],src/images/AllPic/64.jpeg,
2407,,main,0,image-slider-response,61,132690,thesis_experiment,65959647dc9090390e4ec364,6595c7457f89fe169c18e35d,0m6b9t6wri8,prolific,2024-01-03T20:53:20Z,competent,2024-01-03T20:59:03Z,341966,"""192.168.0.4""",12/21/23,h9jfzlzs0khyj5g,FALSE,3878987065-exa-5831488301-mple,1.70432E+12,https://app.prolific.com/submissions/complete?cc=C9DG4TYX,"{'PROLIFIC_PID': '65959647dc9090390e4ec364', 'STUDY_ID': '6595c7457f89fe169c18e35d', 'SESSION_ID': '0m6b9t6wri8', 'platform': 'prolific'}",[],,,,,,,,,,66,66,1421,[66],[1422],src/images/AllPic/73.jpeg,
1894,,main,0,image-slider-response,62,134687,thesis_experiment,65959647dc9090390e4ec364,6595c7457f89fe169c18e35d,0m6b9t6wri8,prolific,2024-01-03T20:53:20Z,competent,2024-01-03T20:59:03Z,341966,"""192.168.0.4""",12/21/23,h9jfzlzs0khyj5g,FALSE,3878987065-exa-5831488301-mple,1.70432E+12,https://app.prolific.com/submissions/complete?cc=C9DG4TYX,"{'PROLIFIC_PID': '65959647dc9090390e4ec364', 'STUDY_ID': '6595c7457f89fe169c18e35d', 'SESSION_ID': '0m6b9t6wri8', 'platform': 'prolific'}",[],,,,,,,,,,64,64,1087,[64],[1087],src/images/AllPic/47.jpeg,
2360,,main,0,image-slider-response,63,137153,thesis_experiment,65959647dc9090390e4ec364,6595c7457f89fe169c18e35d,0m6b9t6wri8,prolific,2024-01-03T20:53:20Z,competent,2024-01-03T20:59:03Z,341966,"""192.168.0.4""",12/21/23,h9jfzlzs0khyj5g,FALSE,3878987065-exa-5831488301-mple,1.70432E+12,https://app.prolific.com/submissions/complete?cc=C9DG4TYX,"{'PROLIFIC_PID': '65959647dc9090390e4ec364', 'STUDY_ID': '6595c7457f89fe169c18e35d', 'SESSION_ID': '0m6b9t6wri8', 'platform': 'prolific'}",[],,,,,,,,,,70,70,1536,[70],[1536],src/images/AllPic/48.jpeg,
1585,,main,0,image-slider-response,64,138842,thesis_experiment,65959647dc9090390e4ec364,6595c7457f89fe169c18e35d,0m6b9t6wri8,prolific,2024-01-03T20:53:20Z,competent,2024-01-03T20:59:03Z,341966,"""192.168.0.4""",12/21/23,h9jfzlzs0khyj5g,FALSE,3878987065-exa-5831488301-mple,1.70432E+12,https://app.prolific.com/submissions/complete?cc=C9DG4TYX,"{'PROLIFIC_PID': '65959647dc9090390e4ec364', 'STUDY_ID': '6595c7457f89fe169c18e35d', 'SESSION_ID': '0m6b9t6wri8', 'platform': 'prolific'}",[],,,,,,,,,,68,68,911,[68],[911],src/images/AllPic/46.jpeg,
1749,,main,0,image-slider-response,65,140697,thesis_experiment,65959647dc9090390e4ec364,6595c7457f89fe169c18e35d,0m6b9t6wri8,prolific,2024-01-03T20:53:20Z,competent,2024-01-03T20:59:03Z,341966,"""192.168.0.4""",12/21/23,h9jfzlzs0khyj5g,FALSE,3878987065-exa-5831488301-mple,1.70432E+12,https://app.prolific.com/submissions/complete?cc=C9DG4TYX,"{'PROLIFIC_PID': '65959647dc9090390e4ec364', 'STUDY_ID': '6595c7457f89fe169c18e35d', 'SESSION_ID': '0m6b9t6wri8', 'platform': 'prolific'}",[],,,,,,,,,,67,67,1089,[67],[1089],src/images/AllPic/72.jpeg,
1613,,main,0,image-slider-response,66,142414,thesis_experiment,65959647dc9090390e4ec364,6595c7457f89fe169c18e35d,0m6b9t6wri8,prolific,2024-01-03T20:53:20Z,competent,2024-01-03T20:59:03Z,341966,"""192.168.0.4""",12/21/23,h9jfzlzs0khyj5g,FALSE,3878987065-exa-5831488301-mple,1.70432E+12,https://app.prolific.com/submissions/complete?cc=C9DG4TYX,"{'PROLIFIC_PID': '65959647dc9090390e4ec364', 'STUDY_ID': '6595c7457f89fe169c18e35d', 'SESSION_ID': '0m6b9t6wri8', 'platform': 'prolific'}",[],,,,,,,,,,69,69,906,[69],[906],src/images/AllPic/58.jpeg,
2004,,main,0,image-slider-response,67,144521,thesis_experiment,65959647dc9090390e4ec364,6595c7457f89fe169c18e35d,0m6b9t6wri8,prolific,2024-01-03T20:53:20Z,competent,2024-01-03T20:59:03Z,341966,"""192.168.0.4""",12/21/23,h9jfzlzs0khyj5g,FALSE,3878987065-exa-5831488301-mple,1.70432E+12,https://app.prolific.com/submissions/complete?cc=C9DG4TYX,"{'PROLIFIC_PID': '65959647dc9090390e4ec364', 'STUDY_ID': '6595c7457f89fe169c18e35d', 'SESSION_ID': '0m6b9t6wri8', 'platform': 'prolific'}",[],,,,,,,,,,69,69,1382,[69],[1382],src/images/AllPic/74.jpeg,
1401,,main,0,image-slider-response,68,146029,thesis_experiment,65959647dc9090390e4ec364,6595c7457f89fe169c18e35d,0m6b9t6wri8,prolific,2024-01-03T20:53:20Z,competent,2024-01-03T20:59:03Z,341966,"""192.168.0.4""",12/21/23,h9jfzlzs0khyj5g,FALSE,3878987065-exa-5831488301-mple,1.70432E+12,https://app.prolific.com/submissions/complete?cc=C9DG4TYX,"{'PROLIFIC_PID': '65959647dc9090390e4ec364', 'STUDY_ID': '6595c7457f89fe169c18e35d', 'SESSION_ID': '0m6b9t6wri8', 'platform': 'prolific'}",[],,,,,,,,,,69,69,878,[69],[878],src/images/AllPic/52.jpeg,
1335,,main,0,image-slider-response,69,147467,thesis_experiment,65959647dc9090390e4ec364,6595c7457f89fe169c18e35d,0m6b9t6wri8,prolific,2024-01-03T20:53:20Z,competent,2024-01-03T20:59:03Z,341966,"""192.168.0.4""",12/21/23,h9jfzlzs0khyj5g,FALSE,3878987065-exa-5831488301-mple,1.70432E+12,https://app.prolific.com/submissions/complete?cc=C9DG4TYX,"{'PROLIFIC_PID': '65959647dc9090390e4ec364', 'STUDY_ID': '6595c7457f89fe169c18e35d', 'SESSION_ID': '0m6b9t6wri8', 'platform': 'prolific'}",[],,,,,,,,,,70,70,860,[70],[860],src/images/AllPic/78.jpeg,
1458,,main,0,image-slider-response,70,149033,thesis_experiment,65959647dc9090390e4ec364,6595c7457f89fe169c18e35d,0m6b9t6wri8,prolific,2024-01-03T20:53:20Z,competent,2024-01-03T20:59:03Z,341966,"""192.168.0.4""",12/21/23,h9jfzlzs0khyj5g,FALSE,3878987065-exa-5831488301-mple,1.70432E+12,https://app.prolific.com/submissions/complete?cc=C9DG4TYX,"{'PROLIFIC_PID': '65959647dc9090390e4ec364', 'STUDY_ID': '6595c7457f89fe169c18e35d', 'SESSION_ID': '0m6b9t6wri8', 'platform': 'prolific'}",[],,,,,,,,,,68,68,883,[68],[883],src/images/AllPic/57.jpeg,
1633,,main,0,image-slider-response,71,150768,thesis_experiment,65959647dc9090390e4ec364,6595c7457f89fe169c18e35d,0m6b9t6wri8,prolific,2024-01-03T20:53:20Z,competent,2024-01-03T20:59:03Z,341966,"""192.168.0.4""",12/21/23,h9jfzlzs0khyj5g,FALSE,3878987065-exa-5831488301-mple,1.70432E+12,https://app.prolific.com/submissions/complete?cc=C9DG4TYX,"{'PROLIFIC_PID': '65959647dc9090390e4ec364', 'STUDY_ID': '6595c7457f89fe169c18e35d', 'SESSION_ID': '0m6b9t6wri8', 'platform': 'prolific'}",[],,,,,,,,,,70,70,907,[70],[907],src/images/AllPic/61.jpeg,
1385,,main,0,image-slider-response,72,152255,thesis_experiment,65959647dc9090390e4ec364,6595c7457f89fe169c18e35d,0m6b9t6wri8,prolific,2024-01-03T20:53:20Z,competent,2024-01-03T20:59:03Z,341966,"""192.168.0.4""",12/21/23,h9jfzlzs0khyj5g,FALSE,3878987065-exa-5831488301-mple,1.70432E+12,https://app.prolific.com/submissions/complete?cc=C9DG4TYX,"{'PROLIFIC_PID': '65959647dc9090390e4ec364', 'STUDY_ID': '6595c7457f89fe169c18e35d', 'SESSION_ID': '0m6b9t6wri8', 'platform': 'prolific'}",[],,,,,,,,,,68,68,877,[68],[877],src/images/AllPic/77.jpeg,
1554,,main,0,image-slider-response,73,153911,thesis_experiment,65959647dc9090390e4ec364,6595c7457f89fe169c18e35d,0m6b9t6wri8,prolific,2024-01-03T20:53:20Z,competent,2024-01-03T20:59:03Z,341966,"""192.168.0.4""",12/21/23,h9jfzlzs0khyj5g,FALSE,3878987065-exa-5831488301-mple,1.70432E+12,https://app.prolific.com/submissions/complete?cc=C9DG4TYX,"{'PROLIFIC_PID': '65959647dc9090390e4ec364', 'STUDY_ID': '6595c7457f89fe169c18e35d', 'SESSION_ID': '0m6b9t6wri8', 'platform': 'prolific'}",[],,,,,,,,,,69,69,1029,[69],[1029],src/images/AllPic/60.jpeg,
1348,,main,0,image-slider-response,74,155363,thesis_experiment,65959647dc9090390e4ec364,6595c7457f89fe169c18e35d,0m6b9t6wri8,prolific,2024-01-03T20:53:20Z,competent,2024-01-03T20:59:03Z,341966,"""192.168.0.4""",12/21/23,h9jfzlzs0khyj5g,FALSE,3878987065-exa-5831488301-mple,1.70432E+12,https://app.prolific.com/submissions/complete?cc=C9DG4TYX,"{'PROLIFIC_PID': '65959647dc9090390e4ec364', 'STUDY_ID': '6595c7457f89fe169c18e35d', 'SESSION_ID': '0m6b9t6wri8', 'platform': 'prolific'}",[],,,,,,,,,,69,69,840,[69],[840],src/images/AllPic/84.jpeg,
1495,,main,0,image-slider-response,75,156963,thesis_experiment,65959647dc9090390e4ec364,6595c7457f89fe169c18e35d,0m6b9t6wri8,prolific,2024-01-03T20:53:20Z,competent,2024-01-03T20:59:03Z,341966,"""192.168.0.4""",12/21/23,h9jfzlzs0khyj5g,FALSE,3878987065-exa-5831488301-mple,1.70432E+12,https://app.prolific.com/submissions/complete?cc=C9DG4TYX,"{'PROLIFIC_PID': '65959647dc9090390e4ec364', 'STUDY_ID': '6595c7457f89fe169c18e35d', 'SESSION_ID': '0m6b9t6wri8', 'platform': 'prolific'}",[],,,,,,,,,,71,71,937,[71],[937],src/images/AllPic/43.jpeg,
2288,,main,0,image-slider-response,76,159354,thesis_experiment,65959647dc9090390e4ec364,6595c7457f89fe169c18e35d,0m6b9t6wri8,prolific,2024-01-03T20:53:20Z,competent,2024-01-03T20:59:03Z,341966,"""192.168.0.4""",12/21/23,h9jfzlzs0khyj5g,FALSE,3878987065-exa-5831488301-mple,1.70432E+12,https://app.prolific.com/submissions/complete?cc=C9DG4TYX,"{'PROLIFIC_PID': '65959647dc9090390e4ec364', 'STUDY_ID': '6595c7457f89fe169c18e35d', 'SESSION_ID': '0m6b9t6wri8', 'platform': 'prolific'}",[],,,,,,,,,,72,72,1513,[72],[1513],src/images/AllPic/59.jpeg,
1433,,main,0,image-slider-response,77,160890,thesis_experiment,65959647dc9090390e4ec364,6595c7457f89fe169c18e35d,0m6b9t6wri8,prolific,2024-01-03T20:53:20Z,competent,2024-01-03T20:59:03Z,341966,"""192.168.0.4""",12/21/23,h9jfzlzs0khyj5g,FALSE,3878987065-exa-5831488301-mple,1.70432E+12,https://app.prolific.com/submissions/complete?cc=C9DG4TYX,"{'PROLIFIC_PID': '65959647dc9090390e4ec364', 'STUDY_ID': '6595c7457f89fe169c18e35d', 'SESSION_ID': '0m6b9t6wri8', 'platform': 'prolific'}",[],,,,,,,,,,71,71,942,[71],[942],src/images/AllPic/68.jpeg,
1667,,main,0,image-slider-response,78,162660,thesis_experiment,65959647dc9090390e4ec364,6595c7457f89fe169c18e35d,0m6b9t6wri8,prolific,2024-01-03T20:53:20Z,competent,2024-01-03T20:59:03Z,341966,"""192.168.0.4""",12/21/23,h9jfzlzs0khyj5g,FALSE,3878987065-exa-5831488301-mple,1.70432E+12,https://app.prolific.com/submissions/complete?cc=C9DG4TYX,"{'PROLIFIC_PID': '65959647dc9090390e4ec364', 'STUDY_ID': '6595c7457f89fe169c18e35d', 'SESSION_ID': '0m6b9t6wri8', 'platform': 'prolific'}",[],,,,,,,,,,72,72,1043,[72],[1043],src/images/AllPic/76.jpeg,
1484,,main,0,image-slider-response,79,164250,thesis_experiment,65959647dc9090390e4ec364,6595c7457f89fe169c18e35d,0m6b9t6wri8,prolific,2024-01-03T20:53:20Z,competent,2024-01-03T20:59:03Z,341966,"""192.168.0.4""",12/21/23,h9jfzlzs0khyj5g,FALSE,3878987065-exa-5831488301-mple,1.70432E+12,https://app.prolific.com/submissions/complete?cc=C9DG4TYX,"{'PROLIFIC_PID': '65959647dc9090390e4ec364', 'STUDY_ID': '6595c7457f89fe169c18e35d', 'SESSION_ID': '0m6b9t6wri8', 'platform': 'prolific'}",[],,,,,,,,,,73,73,975,[73],[975],src/images/AllPic/67.jpeg,
1545,,main,0,image-slider-response,80,165901,thesis_experiment,65959647dc9090390e4ec364,6595c7457f89fe169c18e35d,0m6b9t6wri8,prolific,2024-01-03T20:53:20Z,competent,2024-01-03T20:59:03Z,341966,"""192.168.0.4""",12/21/23,h9jfzlzs0khyj5g,FALSE,3878987065-exa-5831488301-mple,1.70432E+12,https://app.prolific.com/submissions/complete?cc=C9DG4TYX,"{'PROLIFIC_PID': '65959647dc9090390e4ec364', 'STUDY_ID': '6595c7457f89fe169c18e35d', 'SESSION_ID': '0m6b9t6wri8', 'platform': 'prolific'}",[],,,,,,,,,,71,71,920,[71],[920],src/images/AllPic/69.jpeg,
1615,,main,0,image-slider-response,81,167620,thesis_experiment,65959647dc9090390e4ec364,6595c7457f89fe169c18e35d,0m6b9t6wri8,prolific,2024-01-03T20:53:20Z,competent,2024-01-03T20:59:03Z,341966,"""192.168.0.4""",12/21/23,h9jfzlzs0khyj5g,FALSE,3878987065-exa-5831488301-mple,1.70432E+12,https://app.prolific.com/submissions/complete?cc=C9DG4TYX,"{'PROLIFIC_PID': '65959647dc9090390e4ec364', 'STUDY_ID': '6595c7457f89fe169c18e35d', 'SESSION_ID': '0m6b9t6wri8', 'platform': 'prolific'}",[],,,,,,,,,,70,70,1076,[70],[1076],src/images/AllPic/49.jpeg,
1420,,main,0,image-slider-response,82,169143,thesis_experiment,65959647dc9090390e4ec364,6595c7457f89fe169c18e35d,0m6b9t6wri8,prolific,2024-01-03T20:53:20Z,competent,2024-01-03T20:59:03Z,341966,"""192.168.0.4""",12/21/23,h9jfzlzs0khyj5g,FALSE,3878987065-exa-5831488301-mple,1.70432E+12,https://app.prolific.com/submissions/complete?cc=C9DG4TYX,"{'PROLIFIC_PID': '65959647dc9090390e4ec364', 'STUDY_ID': '6595c7457f89fe169c18e35d', 'SESSION_ID': '0m6b9t6wri8', 'platform': 'prolific'}",[],,,,,,,,,,69,69,896,[69],[896],src/images/AllPic/66.jpeg,
1398,,main,0,image-slider-response,83,170646,thesis_experiment,65959647dc9090390e4ec364,6595c7457f89fe169c18e35d,0m6b9t6wri8,prolific,2024-01-03T20:53:20Z,competent,2024-01-03T20:59:03Z,341966,"""192.168.0.4""",12/21/23,h9jfzlzs0khyj5g,FALSE,3878987065-exa-5831488301-mple,1.70432E+12,https://app.prolific.com/submissions/complete?cc=C9DG4TYX,"{'PROLIFIC_PID': '65959647dc9090390e4ec364', 'STUDY_ID': '6595c7457f89fe169c18e35d', 'SESSION_ID': '0m6b9t6wri8', 'platform': 'prolific'}",[],,,,,,,,,,69,69,873,[69],[873],src/images/AllPic/53.jpeg,
1432,,main,0,image-slider-response,84,172181,thesis_experiment,65959647dc9090390e4ec364,6595c7457f89fe169c18e35d,0m6b9t6wri8,prolific,2024-01-03T20:53:20Z,competent,2024-01-03T20:59:03Z,341966,"""192.168.0.4""",12/21/23,h9jfzlzs0khyj5g,FALSE,3878987065-exa-5831488301-mple,1.70432E+12,https://app.prolific.com/submissions/complete?cc=C9DG4TYX,"{'PROLIFIC_PID': '65959647dc9090390e4ec364', 'STUDY_ID': '6595c7457f89fe169c18e35d', 'SESSION_ID': '0m6b9t6wri8', 'platform': 'prolific'}",[],,,,,,,,,,67,67,924,[67],[924],src/images/AllPic/54.jpeg,
1396,,main,0,image-slider-response,85,173680,thesis_experiment,65959647dc9090390e4ec364,6595c7457f89fe169c18e35d,0m6b9t6wri8,prolific,2024-01-03T20:53:20Z,competent,2024-01-03T20:59:03Z,341966,"""192.168.0.4""",12/21/23,h9jfzlzs0khyj5g,FALSE,3878987065-exa-5831488301-mple,1.70432E+12,https://app.prolific.com/submissions/complete?cc=C9DG4TYX,"{'PROLIFIC_PID': '65959647dc9090390e4ec364', 'STUDY_ID': '6595c7457f89fe169c18e35d', 'SESSION_ID': '0m6b9t6wri8', 'platform': 'prolific'}",[],,,,,,,,,,67,67,872,[67],[872],src/images/AllPic/65.jpeg,
1383,,main,0,image-slider-response,86,175166,thesis_experiment,65959647dc9090390e4ec364,6595c7457f89fe169c18e35d,0m6b9t6wri8,prolific,2024-01-03T20:53:20Z,competent,2024-01-03T20:59:03Z,341966,"""192.168.0.4""",12/21/23,h9jfzlzs0khyj5g,FALSE,3878987065-exa-5831488301-mple,1.70432E+12,https://app.prolific.com/submissions/complete?cc=C9DG4TYX,"{'PROLIFIC_PID': '65959647dc9090390e4ec364', 'STUDY_ID': '6595c7457f89fe169c18e35d', 'SESSION_ID': '0m6b9t6wri8', 'platform': 'prolific'}",[],,,,,,,,,,67,67,875,[67],[875],src/images/AllPic/80.jpeg,
1449,,main,0,image-slider-response,87,176717,thesis_experiment,65959647dc9090390e4ec364,6595c7457f89fe169c18e35d,0m6b9t6wri8,prolific,2024-01-03T20:53:20Z,competent,2024-01-03T20:59:03Z,341966,"""192.168.0.4""",12/21/23,h9jfzlzs0khyj5g,FALSE,3878987065-exa-5831488301-mple,1.70432E+12,https://app.prolific.com/submissions/complete?cc=C9DG4TYX,"{'PROLIFIC_PID': '65959647dc9090390e4ec364', 'STUDY_ID': '6595c7457f89fe169c18e35d', 'SESSION_ID': '0m6b9t6wri8', 'platform': 'prolific'}",[],,,,,,,,,,69,69,958,[69],[958],src/images/AllPic/62.jpeg,
1394,,main,0,image-slider-response,88,178217,thesis_experiment,65959647dc9090390e4ec364,6595c7457f89fe169c18e35d,0m6b9t6wri8,prolific,2024-01-03T20:53:20Z,competent,2024-01-03T20:59:03Z,341966,"""192.168.0.4""",12/21/23,h9jfzlzs0khyj5g,FALSE,3878987065-exa-5831488301-mple,1.70432E+12,https://app.prolific.com/submissions/complete?cc=C9DG4TYX,"{'PROLIFIC_PID': '65959647dc9090390e4ec364', 'STUDY_ID': '6595c7457f89fe169c18e35d', 'SESSION_ID': '0m6b9t6wri8', 'platform': 'prolific'}",[],,,,,,,,,,68,68,854,[68],[854],src/images/AllPic/112.jpeg,
2071,,main,0,image-slider-response,89,180391,thesis_experiment,65959647dc9090390e4ec364,6595c7457f89fe169c18e35d,0m6b9t6wri8,prolific,2024-01-03T20:53:20Z,competent,2024-01-03T20:59:03Z,341966,"""192.168.0.4""",12/21/23,h9jfzlzs0khyj5g,FALSE,3878987065-exa-5831488301-mple,1.70432E+12,https://app.prolific.com/submissions/complete?cc=C9DG4TYX,"{'PROLIFIC_PID': '65959647dc9090390e4ec364', 'STUDY_ID': '6595c7457f89fe169c18e35d', 'SESSION_ID': '0m6b9t6wri8', 'platform': 'prolific'}",[],,,,,,,,,,70,70,1159,[70],[1159],src/images/AllPic/108.jpeg,
1433,,main,0,image-slider-response,90,181929,thesis_experiment,65959647dc9090390e4ec364,6595c7457f89fe169c18e35d,0m6b9t6wri8,prolific,2024-01-03T20:53:20Z,competent,2024-01-03T20:59:03Z,341966,"""192.168.0.4""",12/21/23,h9jfzlzs0khyj5g,FALSE,3878987065-exa-5831488301-mple,1.70432E+12,https://app.prolific.com/submissions/complete?cc=C9DG4TYX,"{'PROLIFIC_PID': '65959647dc9090390e4ec364', 'STUDY_ID': '6595c7457f89fe169c18e35d', 'SESSION_ID': '0m6b9t6wri8', 'platform': 'prolific'}",[],,,,,,,,,,71,71,909,[71],[909],src/images/AllPic/95.jpeg,
1432,,main,0,image-slider-response,91,183462,thesis_experiment,65959647dc9090390e4ec364,6595c7457f89fe169c18e35d,0m6b9t6wri8,prolific,2024-01-03T20:53:20Z,competent,2024-01-03T20:59:03Z,341966,"""192.168.0.4""",12/21/23,h9jfzlzs0khyj5g,FALSE,3878987065-exa-5831488301-mple,1.70432E+12,https://app.prolific.com/submissions/complete?cc=C9DG4TYX,"{'PROLIFIC_PID': '65959647dc9090390e4ec364', 'STUDY_ID': '6595c7457f89fe169c18e35d', 'SESSION_ID': '0m6b9t6wri8', 'platform': 'prolific'}",[],,,,,,,,,,71,71,891,[71],[891],src/images/AllPic/98.jpeg,
1783,,main,0,image-slider-response,92,185350,thesis_experiment,65959647dc9090390e4ec364,6595c7457f89fe169c18e35d,0m6b9t6wri8,prolific,2024-01-03T20:53:20Z,competent,2024-01-03T20:59:03Z,341966,"""192.168.0.4""",12/21/23,h9jfzlzs0khyj5g,FALSE,3878987065-exa-5831488301-mple,1.70432E+12,https://app.prolific.com/submissions/complete?cc=C9DG4TYX,"{'PROLIFIC_PID': '65959647dc9090390e4ec364', 'STUDY_ID': '6595c7457f89fe169c18e35d', 'SESSION_ID': '0m6b9t6wri8', 'platform': 'prolific'}",[],,,,,,,,,,69,69,1193,[69],[1193],src/images/AllPic/123.jpeg,
1449,,main,0,image-slider-response,93,186902,thesis_experiment,65959647dc9090390e4ec364,6595c7457f89fe169c18e35d,0m6b9t6wri8,prolific,2024-01-03T20:53:20Z,competent,2024-01-03T20:59:03Z,341966,"""192.168.0.4""",12/21/23,h9jfzlzs0khyj5g,FALSE,3878987065-exa-5831488301-mple,1.70432E+12,https://app.prolific.com/submissions/complete?cc=C9DG4TYX,"{'PROLIFIC_PID': '65959647dc9090390e4ec364', 'STUDY_ID': '6595c7457f89fe169c18e35d', 'SESSION_ID': '0m6b9t6wri8', 'platform': 'prolific'}",[],,,,,,,,,,72,72,862,[72],[862],src/images/AllPic/110.jpeg,
1752,,main,0,image-slider-response,94,188758,thesis_experiment,65959647dc9090390e4ec364,6595c7457f89fe169c18e35d,0m6b9t6wri8,prolific,2024-01-03T20:53:20Z,competent,2024-01-03T20:59:03Z,341966,"""192.168.0.4""",12/21/23,h9jfzlzs0khyj5g,FALSE,3878987065-exa-5831488301-mple,1.70432E+12,https://app.prolific.com/submissions/complete?cc=C9DG4TYX,"{'PROLIFIC_PID': '65959647dc9090390e4ec364', 'STUDY_ID': '6595c7457f89fe169c18e35d', 'SESSION_ID': '0m6b9t6wri8', 'platform': 'prolific'}",[],,,,,,,,,,70,70,1094,[70],[1094],src/images/AllPic/104.jpeg,
1695,,main,0,image-slider-response,95,190559,thesis_experiment,65959647dc9090390e4ec364,6595c7457f89fe169c18e35d,0m6b9t6wri8,prolific,2024-01-03T20:53:20Z,competent,2024-01-03T20:59:03Z,341966,"""192.168.0.4""",12/21/23,h9jfzlzs0khyj5g,FALSE,3878987065-exa-5831488301-mple,1.70432E+12,https://app.prolific.com/submissions/complete?cc=C9DG4TYX,"{'PROLIFIC_PID': '65959647dc9090390e4ec364', 'STUDY_ID': '6595c7457f89fe169c18e35d', 'SESSION_ID': '0m6b9t6wri8', 'platform': 'prolific'}",[],,,,,,,,,,70,70,1021,[70],[1021],src/images/AllPic/87.jpeg,
1549,,main,0,image-slider-response,96,192210,thesis_experiment,65959647dc9090390e4ec364,6595c7457f89fe169c18e35d,0m6b9t6wri8,prolific,2024-01-03T20:53:20Z,competent,2024-01-03T20:59:03Z,341966,"""192.168.0.4""",12/21/23,h9jfzlzs0khyj5g,FALSE,3878987065-exa-5831488301-mple,1.70432E+12,https://app.prolific.com/submissions/complete?cc=C9DG4TYX,"{'PROLIFIC_PID': '65959647dc9090390e4ec364', 'STUDY_ID': '6595c7457f89fe169c18e35d', 'SESSION_ID': '0m6b9t6wri8', 'platform': 'prolific'}",[],,,,,,,,,,70,70,926,[70],[926],src/images/AllPic/100.jpeg,
1568,,main,0,image-slider-response,97,193884,thesis_experiment,65959647dc9090390e4ec364,6595c7457f89fe169c18e35d,0m6b9t6wri8,prolific,2024-01-03T20:53:20Z,competent,2024-01-03T20:59:03Z,341966,"""192.168.0.4""",12/21/23,h9jfzlzs0khyj5g,FALSE,3878987065-exa-5831488301-mple,1.70432E+12,https://app.prolific.com/submissions/complete?cc=C9DG4TYX,"{'PROLIFIC_PID': '65959647dc9090390e4ec364', 'STUDY_ID': '6595c7457f89fe169c18e35d', 'SESSION_ID': '0m6b9t6wri8', 'platform': 'prolific'}",[],,,,,,,,,,69,69,1043,[69],[1043],src/images/AllPic/122.jpeg,
1649,,main,0,image-slider-response,98,195638,thesis_experiment,65959647dc9090390e4ec364,6595c7457f89fe169c18e35d,0m6b9t6wri8,prolific,2024-01-03T20:53:20Z,competent,2024-01-03T20:59:03Z,341966,"""192.168.0.4""",12/21/23,h9jfzlzs0khyj5g,FALSE,3878987065-exa-5831488301-mple,1.70432E+12,https://app.prolific.com/submissions/complete?cc=C9DG4TYX,"{'PROLIFIC_PID': '65959647dc9090390e4ec364', 'STUDY_ID': '6595c7457f89fe169c18e35d', 'SESSION_ID': '0m6b9t6wri8', 'platform': 'prolific'}",[],,,,,,,,,,71,71,1009,[71],[1009],src/images/AllPic/99.jpeg,
1450,,main,0,image-slider-response,99,197189,thesis_experiment,65959647dc9090390e4ec364,6595c7457f89fe169c18e35d,0m6b9t6wri8,prolific,2024-01-03T20:53:20Z,competent,2024-01-03T20:59:03Z,341966,"""192.168.0.4""",12/21/23,h9jfzlzs0khyj5g,FALSE,3878987065-exa-5831488301-mple,1.70432E+12,https://app.prolific.com/submissions/complete?cc=C9DG4TYX,"{'PROLIFIC_PID': '65959647dc9090390e4ec364', 'STUDY_ID': '6595c7457f89fe169c18e35d', 'SESSION_ID': '0m6b9t6wri8', 'platform': 'prolific'}",[],,,,,,,,,,72,72,958,[72],[958],src/images/AllPic/117.jpeg,
1485,,main,0,image-slider-response,100,198777,thesis_experiment,65959647dc9090390e4ec364,6595c7457f89fe169c18e35d,0m6b9t6wri8,prolific,2024-01-03T20:53:20Z,competent,2024-01-03T20:59:03Z,341966,"""192.168.0.4""",12/21/23,h9jfzlzs0khyj5g,FALSE,3878987065-exa-5831488301-mple,1.70432E+12,https://app.prolific.com/submissions/complete?cc=C9DG4TYX,"{'PROLIFIC_PID': '65959647dc9090390e4ec364', 'STUDY_ID': '6595c7457f89fe169c18e35d', 'SESSION_ID': '0m6b9t6wri8', 'platform': 'prolific'}",[],,,,,,,,,,72,72,943,[72],[943],src/images/AllPic/94.jpeg,
1931,,main,0,image-slider-response,101,200812,thesis_experiment,65959647dc9090390e4ec364,6595c7457f89fe169c18e35d,0m6b9t6wri8,prolific,2024-01-03T20:53:20Z,competent,2024-01-03T20:59:03Z,341966,"""192.168.0.4""",12/21/23,h9jfzlzs0khyj5g,FALSE,3878987065-exa-5831488301-mple,1.70432E+12,https://app.prolific.com/submissions/complete?cc=C9DG4TYX,"{'PROLIFIC_PID': '65959647dc9090390e4ec364', 'STUDY_ID': '6595c7457f89fe169c18e35d', 'SESSION_ID': '0m6b9t6wri8', 'platform': 'prolific'}",[],,,,,,,,,,71,71,1274,[71],[1274],src/images/AllPic/116.jpeg,
2240,,main,0,image-slider-response,102,203157,thesis_experiment,65959647dc9090390e4ec364,6595c7457f89fe169c18e35d,0m6b9t6wri8,prolific,2024-01-03T20:53:20Z,competent,2024-01-03T20:59:03Z,341966,"""192.168.0.4""",12/21/23,h9jfzlzs0khyj5g,FALSE,3878987065-exa-5831488301-mple,1.70432E+12,https://app.prolific.com/submissions/complete?cc=C9DG4TYX,"{'PROLIFIC_PID': '65959647dc9090390e4ec364', 'STUDY_ID': '6595c7457f89fe169c18e35d', 'SESSION_ID': '0m6b9t6wri8', 'platform': 'prolific'}",[],,,,,,,,,,67,67,1341,[67],[1341],src/images/AllPic/121.jpeg,
1965,,main,0,image-slider-response,103,205229,thesis_experiment,65959647dc9090390e4ec364,6595c7457f89fe169c18e35d,0m6b9t6wri8,prolific,2024-01-03T20:53:20Z,competent,2024-01-03T20:59:03Z,341966,"""192.168.0.4""",12/21/23,h9jfzlzs0khyj5g,FALSE,3878987065-exa-5831488301-mple,1.70432E+12,https://app.prolific.com/submissions/complete?cc=C9DG4TYX,"{'PROLIFIC_PID': '65959647dc9090390e4ec364', 'STUDY_ID': '6595c7457f89fe169c18e35d', 'SESSION_ID': '0m6b9t6wri8', 'platform': 'prolific'}",[],,,,,,,,,,67,67,1189,[67],[1189],src/images/AllPic/93.jpeg,
1613,,main,0,image-slider-response,104,206948,thesis_experiment,65959647dc9090390e4ec364,6595c7457f89fe169c18e35d,0m6b9t6wri8,prolific,2024-01-03T20:53:20Z,competent,2024-01-03T20:59:03Z,341966,"""192.168.0.4""",12/21/23,h9jfzlzs0khyj5g,FALSE,3878987065-exa-5831488301-mple,1.70432E+12,https://app.prolific.com/submissions/complete?cc=C9DG4TYX,"{'PROLIFIC_PID': '65959647dc9090390e4ec364', 'STUDY_ID': '6595c7457f89fe169c18e35d', 'SESSION_ID': '0m6b9t6wri8', 'platform': 'prolific'}",[],,,,,,,,,,67,67,1025,[67],[1025],src/images/AllPic/85.jpeg,
1540,,main,0,image-slider-response,105,208593,thesis_experiment,65959647dc9090390e4ec364,6595c7457f89fe169c18e35d,0m6b9t6wri8,prolific,2024-01-03T20:53:20Z,competent,2024-01-03T20:59:03Z,341966,"""192.168.0.4""",12/21/23,h9jfzlzs0khyj5g,FALSE,3878987065-exa-5831488301-mple,1.70432E+12,https://app.prolific.com/submissions/complete?cc=C9DG4TYX,"{'PROLIFIC_PID': '65959647dc9090390e4ec364', 'STUDY_ID': '6595c7457f89fe169c18e35d', 'SESSION_ID': '0m6b9t6wri8', 'platform': 'prolific'}",[],,,,,,,,,,70,70,943,[70],[943],src/images/AllPic/119.jpeg,
1649,,main,0,image-slider-response,106,210347,thesis_experiment,65959647dc9090390e4ec364,6595c7457f89fe169c18e35d,0m6b9t6wri8,prolific,2024-01-03T20:53:20Z,competent,2024-01-03T20:59:03Z,341966,"""192.168.0.4""",12/21/23,h9jfzlzs0khyj5g,FALSE,3878987065-exa-5831488301-mple,1.70432E+12,https://app.prolific.com/submissions/complete?cc=C9DG4TYX,"{'PROLIFIC_PID': '65959647dc9090390e4ec364', 'STUDY_ID': '6595c7457f89fe169c18e35d', 'SESSION_ID': '0m6b9t6wri8', 'platform': 'prolific'}",[],,,,,,,,,,69,69,923,[69],[923],src/images/AllPic/113.jpeg,
1747,,main,0,image-slider-response,107,212196,thesis_experiment,65959647dc9090390e4ec364,6595c7457f89fe169c18e35d,0m6b9t6wri8,prolific,2024-01-03T20:53:20Z,competent,2024-01-03T20:59:03Z,341966,"""192.168.0.4""",12/21/23,h9jfzlzs0khyj5g,FALSE,3878987065-exa-5831488301-mple,1.70432E+12,https://app.prolific.com/submissions/complete?cc=C9DG4TYX,"{'PROLIFIC_PID': '65959647dc9090390e4ec364', 'STUDY_ID': '6595c7457f89fe169c18e35d', 'SESSION_ID': '0m6b9t6wri8', 'platform': 'prolific'}",[],,,,,,,,,,68,68,973,[68],[973],src/images/AllPic/115.jpeg,
1538,,main,0,image-slider-response,108,213838,thesis_experiment,65959647dc9090390e4ec364,6595c7457f89fe169c18e35d,0m6b9t6wri8,prolific,2024-01-03T20:53:20Z,competent,2024-01-03T20:59:03Z,341966,"""192.168.0.4""",12/21/23,h9jfzlzs0khyj5g,FALSE,3878987065-exa-5831488301-mple,1.70432E+12,https://app.prolific.com/submissions/complete?cc=C9DG4TYX,"{'PROLIFIC_PID': '65959647dc9090390e4ec364', 'STUDY_ID': '6595c7457f89fe169c18e35d', 'SESSION_ID': '0m6b9t6wri8', 'platform': 'prolific'}",[],,,,,,,,,,68,68,911,[68],[911],src/images/AllPic/126.jpeg,
1462,,main,0,image-slider-response,109,215406,thesis_experiment,65959647dc9090390e4ec364,6595c7457f89fe169c18e35d,0m6b9t6wri8,prolific,2024-01-03T20:53:20Z,competent,2024-01-03T20:59:03Z,341966,"""192.168.0.4""",12/21/23,h9jfzlzs0khyj5g,FALSE,3878987065-exa-5831488301-mple,1.70432E+12,https://app.prolific.com/submissions/complete?cc=C9DG4TYX,"{'PROLIFIC_PID': '65959647dc9090390e4ec364', 'STUDY_ID': '6595c7457f89fe169c18e35d', 'SESSION_ID': '0m6b9t6wri8', 'platform': 'prolific'}",[],,,,,,,,,,69,69,888,[69],[888],src/images/AllPic/86.jpeg,
1515,,main,0,image-slider-response,110,217025,thesis_experiment,65959647dc9090390e4ec364,6595c7457f89fe169c18e35d,0m6b9t6wri8,prolific,2024-01-03T20:53:20Z,competent,2024-01-03T20:59:03Z,341966,"""192.168.0.4""",12/21/23,h9jfzlzs0khyj5g,FALSE,3878987065-exa-5831488301-mple,1.70432E+12,https://app.prolific.com/submissions/complete?cc=C9DG4TYX,"{'PROLIFIC_PID': '65959647dc9090390e4ec364', 'STUDY_ID': '6595c7457f89fe169c18e35d', 'SESSION_ID': '0m6b9t6wri8', 'platform': 'prolific'}",[],,,,,,,,,,70,70,907,[70],[907],src/images/AllPic/114.jpeg,
1566,,main,0,image-slider-response,111,218696,thesis_experiment,65959647dc9090390e4ec364,6595c7457f89fe169c18e35d,0m6b9t6wri8,prolific,2024-01-03T20:53:20Z,competent,2024-01-03T20:59:03Z,341966,"""192.168.0.4""",12/21/23,h9jfzlzs0khyj5g,FALSE,3878987065-exa-5831488301-mple,1.70432E+12,https://app.prolific.com/submissions/complete?cc=C9DG4TYX,"{'PROLIFIC_PID': '65959647dc9090390e4ec364', 'STUDY_ID': '6595c7457f89fe169c18e35d', 'SESSION_ID': '0m6b9t6wri8', 'platform': 'prolific'}",[],,,,,,,,,,67,67,956,[67],[956],src/images/AllPic/109.jpeg,
1480,,main,0,image-slider-response,112,220280,thesis_experiment,65959647dc9090390e4ec364,6595c7457f89fe169c18e35d,0m6b9t6wri8,prolific,2024-01-03T20:53:20Z,competent,2024-01-03T20:59:03Z,341966,"""192.168.0.4""",12/21/23,h9jfzlzs0khyj5g,FALSE,3878987065-exa-5831488301-mple,1.70432E+12,https://app.prolific.com/submissions/complete?cc=C9DG4TYX,"{'PROLIFIC_PID': '65959647dc9090390e4ec364', 'STUDY_ID': '6595c7457f89fe169c18e35d', 'SESSION_ID': '0m6b9t6wri8', 'platform': 'prolific'}",[],,,,,,,,,,67,67,872,[67],[872],src/images/AllPic/89.jpeg,
1467,,main,0,image-slider-response,113,221852,thesis_experiment,65959647dc9090390e4ec364,6595c7457f89fe169c18e35d,0m6b9t6wri8,prolific,2024-01-03T20:53:20Z,competent,2024-01-03T20:59:03Z,341966,"""192.168.0.4""",12/21/23,h9jfzlzs0khyj5g,FALSE,3878987065-exa-5831488301-mple,1.70432E+12,https://app.prolific.com/submissions/complete?cc=C9DG4TYX,"{'PROLIFIC_PID': '65959647dc9090390e4ec364', 'STUDY_ID': '6595c7457f89fe169c18e35d', 'SESSION_ID': '0m6b9t6wri8', 'platform': 'prolific'}",[],,,,,,,,,,70,70,874,[70],[874],src/images/AllPic/88.jpeg,
1891,,main,0,image-slider-response,114,223846,thesis_experiment,65959647dc9090390e4ec364,6595c7457f89fe169c18e35d,0m6b9t6wri8,prolific,2024-01-03T20:53:20Z,competent,2024-01-03T20:59:03Z,341966,"""192.168.0.4""",12/21/23,h9jfzlzs0khyj5g,FALSE,3878987065-exa-5831488301-mple,1.70432E+12,https://app.prolific.com/submissions/complete?cc=C9DG4TYX,"{'PROLIFIC_PID': '65959647dc9090390e4ec364', 'STUDY_ID': '6595c7457f89fe169c18e35d', 'SESSION_ID': '0m6b9t6wri8', 'platform': 'prolific'}",[],,,,,,,,,,68,68,1345,[68],[1345],src/images/AllPic/92.jpeg,
1679,,main,0,image-slider-response,115,225629,thesis_experiment,65959647dc9090390e4ec364,6595c7457f89fe169c18e35d,0m6b9t6wri8,prolific,2024-01-03T20:53:20Z,competent,2024-01-03T20:59:03Z,341966,"""192.168.0.4""",12/21/23,h9jfzlzs0khyj5g,FALSE,3878987065-exa-5831488301-mple,1.70432E+12,https://app.prolific.com/submissions/complete?cc=C9DG4TYX,"{'PROLIFIC_PID': '65959647dc9090390e4ec364', 'STUDY_ID': '6595c7457f89fe169c18e35d', 'SESSION_ID': '0m6b9t6wri8', 'platform': 'prolific'}",[],,,,,,,,,,67,67,939,[67],[939],src/images/AllPic/102.jpeg,
1438,,main,0,image-slider-response,116,227168,thesis_experiment,65959647dc9090390e4ec364,6595c7457f89fe169c18e35d,0m6b9t6wri8,prolific,2024-01-03T20:53:20Z,competent,2024-01-03T20:59:03Z,341966,"""192.168.0.4""",12/21/23,h9jfzlzs0khyj5g,FALSE,3878987065-exa-5831488301-mple,1.70432E+12,https://app.prolific.com/submissions/complete?cc=C9DG4TYX,"{'PROLIFIC_PID': '65959647dc9090390e4ec364', 'STUDY_ID': '6595c7457f89fe169c18e35d', 'SESSION_ID': '0m6b9t6wri8', 'platform': 'prolific'}",[],,,,,,,,,,68,68,909,[68],[910],src/images/AllPic/96.jpeg,
1396,,main,0,image-slider-response,117,228666,thesis_experiment,65959647dc9090390e4ec364,6595c7457f89fe169c18e35d,0m6b9t6wri8,prolific,2024-01-03T20:53:20Z,competent,2024-01-03T20:59:03Z,341966,"""192.168.0.4""",12/21/23,h9jfzlzs0khyj5g,FALSE,3878987065-exa-5831488301-mple,1.70432E+12,https://app.prolific.com/submissions/complete?cc=C9DG4TYX,"{'PROLIFIC_PID': '65959647dc9090390e4ec364', 'STUDY_ID': '6595c7457f89fe169c18e35d', 'SESSION_ID': '0m6b9t6wri8', 'platform': 'prolific'}",[],,,,,,,,,,67,67,855,[67],[855],src/images/AllPic/90.jpeg,
1514,,main,0,image-slider-response,118,230287,thesis_experiment,65959647dc9090390e4ec364,6595c7457f89fe169c18e35d,0m6b9t6wri8,prolific,2024-01-03T20:53:20Z,competent,2024-01-03T20:59:03Z,341966,"""192.168.0.4""",12/21/23,h9jfzlzs0khyj5g,FALSE,3878987065-exa-5831488301-mple,1.70432E+12,https://app.prolific.com/submissions/complete?cc=C9DG4TYX,"{'PROLIFIC_PID': '65959647dc9090390e4ec364', 'STUDY_ID': '6595c7457f89fe169c18e35d', 'SESSION_ID': '0m6b9t6wri8', 'platform': 'prolific'}",[],,,,,,,,,,67,67,990,[67],[990],src/images/AllPic/91.jpeg,
1915,,main,0,image-slider-response,119,232305,thesis_experiment,65959647dc9090390e4ec364,6595c7457f89fe169c18e35d,0m6b9t6wri8,prolific,2024-01-03T20:53:20Z,competent,2024-01-03T20:59:03Z,341966,"""192.168.0.4""",12/21/23,h9jfzlzs0khyj5g,FALSE,3878987065-exa-5831488301-mple,1.70432E+12,https://app.prolific.com/submissions/complete?cc=C9DG4TYX,"{'PROLIFIC_PID': '65959647dc9090390e4ec364', 'STUDY_ID': '6595c7457f89fe169c18e35d', 'SESSION_ID': '0m6b9t6wri8', 'platform': 'prolific'}",[],,,,,,,,,,67,67,1291,[67],[1291],src/images/AllPic/106.jpeg,
1667,,main,0,image-slider-response,120,234075,thesis_experiment,65959647dc9090390e4ec364,6595c7457f89fe169c18e35d,0m6b9t6wri8,prolific,2024-01-03T20:53:20Z,competent,2024-01-03T20:59:03Z,341966,"""192.168.0.4""",12/21/23,h9jfzlzs0khyj5g,FALSE,3878987065-exa-5831488301-mple,1.70432E+12,https://app.prolific.com/submissions/complete?cc=C9DG4TYX,"{'PROLIFIC_PID': '65959647dc9090390e4ec364', 'STUDY_ID': '6595c7457f89fe169c18e35d', 'SESSION_ID': '0m6b9t6wri8', 'platform': 'prolific'}",[],,,,,,,,,,70,70,995,[70],[995],src/images/AllPic/111.jpeg,
1603,,main,0,image-slider-response,121,235783,thesis_experiment,65959647dc9090390e4ec364,6595c7457f89fe169c18e35d,0m6b9t6wri8,prolific,2024-01-03T20:53:20Z,competent,2024-01-03T20:59:03Z,341966,"""192.168.0.4""",12/21/23,h9jfzlzs0khyj5g,FALSE,3878987065-exa-5831488301-mple,1.70432E+12,https://app.prolific.com/submissions/complete?cc=C9DG4TYX,"{'PROLIFIC_PID': '65959647dc9090390e4ec364', 'STUDY_ID': '6595c7457f89fe169c18e35d', 'SESSION_ID': '0m6b9t6wri8', 'platform': 'prolific'}",[],,,,,,,,,,71,71,912,[71],[912],src/images/AllPic/97.jpeg,
1877,,main,0,image-slider-response,122,237766,thesis_experiment,65959647dc9090390e4ec364,6595c7457f89fe169c18e35d,0m6b9t6wri8,prolific,2024-01-03T20:53:20Z,competent,2024-01-03T20:59:03Z,341966,"""192.168.0.4""",12/21/23,h9jfzlzs0khyj5g,FALSE,3878987065-exa-5831488301-mple,1.70432E+12,https://app.prolific.com/submissions/complete?cc=C9DG4TYX,"{'PROLIFIC_PID': '65959647dc9090390e4ec364', 'STUDY_ID': '6595c7457f89fe169c18e35d', 'SESSION_ID': '0m6b9t6wri8', 'platform': 'prolific'}",[],,,,,,,,,,72,72,1170,[72],[1170],src/images/AllPic/124.jpeg,
1783,,main,0,image-slider-response,123,239653,thesis_experiment,65959647dc9090390e4ec364,6595c7457f89fe169c18e35d,0m6b9t6wri8,prolific,2024-01-03T20:53:20Z,competent,2024-01-03T20:59:03Z,341966,"""192.168.0.4""",12/21/23,h9jfzlzs0khyj5g,FALSE,3878987065-exa-5831488301-mple,1.70432E+12,https://app.prolific.com/submissions/complete?cc=C9DG4TYX,"{'PROLIFIC_PID': '65959647dc9090390e4ec364', 'STUDY_ID': '6595c7457f89fe169c18e35d', 'SESSION_ID': '0m6b9t6wri8', 'platform': 'prolific'}",[],,,,,,,,,,69,69,1245,[69],[1245],src/images/AllPic/120.jpeg,
1453,,main,0,image-slider-response,124,241207,thesis_experiment,65959647dc9090390e4ec364,6595c7457f89fe169c18e35d,0m6b9t6wri8,prolific,2024-01-03T20:53:20Z,competent,2024-01-03T20:59:03Z,341966,"""192.168.0.4""",12/21/23,h9jfzlzs0khyj5g,FALSE,3878987065-exa-5831488301-mple,1.70432E+12,https://app.prolific.com/submissions/complete?cc=C9DG4TYX,"{'PROLIFIC_PID': '65959647dc9090390e4ec364', 'STUDY_ID': '6595c7457f89fe169c18e35d', 'SESSION_ID': '0m6b9t6wri8', 'platform': 'prolific'}",[],,,,,,,,,,69,69,897,[69],[897],src/images/AllPic/105.jpeg,
1450,,main,0,image-slider-response,125,242762,thesis_experiment,65959647dc9090390e4ec364,6595c7457f89fe169c18e35d,0m6b9t6wri8,prolific,2024-01-03T20:53:20Z,competent,2024-01-03T20:59:03Z,341966,"""192.168.0.4""",12/21/23,h9jfzlzs0khyj5g,FALSE,3878987065-exa-5831488301-mple,1.70432E+12,https://app.prolific.com/submissions/complete?cc=C9DG4TYX,"{'PROLIFIC_PID': '65959647dc9090390e4ec364', 'STUDY_ID': '6595c7457f89fe169c18e35d', 'SESSION_ID': '0m6b9t6wri8', 'platform': 'prolific'}",[],,,,,,,,,,67,67,894,[67],[894],src/images/AllPic/125.jpeg,
1500,,main,0,image-slider-response,126,244367,thesis_experiment,65959647dc9090390e4ec364,6595c7457f89fe169c18e35d,0m6b9t6wri8,prolific,2024-01-03T20:53:20Z,competent,2024-01-03T20:59:03Z,341966,"""192.168.0.4""",12/21/23,h9jfzlzs0khyj5g,FALSE,3878987065-exa-5831488301-mple,1.70432E+12,https://app.prolific.com/submissions/complete?cc=C9DG4TYX,"{'PROLIFIC_PID': '65959647dc9090390e4ec364', 'STUDY_ID': '6595c7457f89fe169c18e35d', 'SESSION_ID': '0m6b9t6wri8', 'platform': 'prolific'}",[],,,,,,,,,,68,68,909,[68],[910],src/images/AllPic/101.jpeg,
1840,,main,0,image-slider-response,127,246310,thesis_experiment,65959647dc9090390e4ec364,6595c7457f89fe169c18e35d,0m6b9t6wri8,prolific,2024-01-03T20:53:20Z,competent,2024-01-03T20:59:03Z,341966,"""192.168.0.4""",12/21/23,h9jfzlzs0khyj5g,FALSE,3878987065-exa-5831488301-mple,1.70432E+12,https://app.prolific.com/submissions/complete?cc=C9DG4TYX,"{'PROLIFIC_PID': '65959647dc9090390e4ec364', 'STUDY_ID': '6595c7457f89fe169c18e35d', 'SESSION_ID': '0m6b9t6wri8', 'platform': 'prolific'}",[],,,,,,,,,,71,71,1014,[71],[1014],src/images/AllPic/103.jpeg,
1697,,main,0,image-slider-response,128,248114,thesis_experiment,65959647dc9090390e4ec364,6595c7457f89fe169c18e35d,0m6b9t6wri8,prolific,2024-01-03T20:53:20Z,competent,2024-01-03T20:59:03Z,341966,"""192.168.0.4""",12/21/23,h9jfzlzs0khyj5g,FALSE,3878987065-exa-5831488301-mple,1.70432E+12,https://app.prolific.com/submissions/complete?cc=C9DG4TYX,"{'PROLIFIC_PID': '65959647dc9090390e4ec364', 'STUDY_ID': '6595c7457f89fe169c18e35d', 'SESSION_ID': '0m6b9t6wri8', 'platform': 'prolific'}",[],,,,,,,,,,71,71,957,[71],[957],src/images/AllPic/118.jpeg,
1899,,main,0,image-slider-response,129,250119,thesis_experiment,65959647dc9090390e4ec364,6595c7457f89fe169c18e35d,0m6b9t6wri8,prolific,2024-01-03T20:53:20Z,competent,2024-01-03T20:59:03Z,341966,"""192.168.0.4""",12/21/23,h9jfzlzs0khyj5g,FALSE,3878987065-exa-5831488301-mple,1.70432E+12,https://app.prolific.com/submissions/complete?cc=C9DG4TYX,"{'PROLIFIC_PID': '65959647dc9090390e4ec364', 'STUDY_ID': '6595c7457f89fe169c18e35d', 'SESSION_ID': '0m6b9t6wri8', 'platform': 'prolific'}",[],,,,,,,,,,70,70,907,[70],[907],src/images/AllPic/107.jpeg,
2074,,main,0,image-slider-response,130,252296,thesis_experiment,65959647dc9090390e4ec364,6595c7457f89fe169c18e35d,0m6b9t6wri8,prolific,2024-01-03T20:53:20Z,competent,2024-01-03T20:59:03Z,341966,"""192.168.0.4""",12/21/23,h9jfzlzs0khyj5g,FALSE,3878987065-exa-5831488301-mple,1.70432E+12,https://app.prolific.com/submissions/complete?cc=C9DG4TYX,"{'PROLIFIC_PID': '65959647dc9090390e4ec364', 'STUDY_ID': '6595c7457f89fe169c18e35d', 'SESSION_ID': '0m6b9t6wri8', 'platform': 'prolific'}",[],,,,,,,,,,68,68,1448,[68],[1448],src/images/AllPic/134.jpeg,
1665,,main,0,image-slider-response,131,254067,thesis_experiment,65959647dc9090390e4ec364,6595c7457f89fe169c18e35d,0m6b9t6wri8,prolific,2024-01-03T20:53:20Z,competent,2024-01-03T20:59:03Z,341966,"""192.168.0.4""",12/21/23,h9jfzlzs0khyj5g,FALSE,3878987065-exa-5831488301-mple,1.70432E+12,https://app.prolific.com/submissions/complete?cc=C9DG4TYX,"{'PROLIFIC_PID': '65959647dc9090390e4ec364', 'STUDY_ID': '6595c7457f89fe169c18e35d', 'SESSION_ID': '0m6b9t6wri8', 'platform': 'prolific'}",[],,,,,,,,,,71,71,923,[71],[923],src/images/AllPic/128.jpeg,
1635,,main,0,image-slider-response,132,255805,thesis_experiment,65959647dc9090390e4ec364,6595c7457f89fe169c18e35d,0m6b9t6wri8,prolific,2024-01-03T20:53:20Z,competent,2024-01-03T20:59:03Z,341966,"""192.168.0.4""",12/21/23,h9jfzlzs0khyj5g,FALSE,3878987065-exa-5831488301-mple,1.70432E+12,https://app.prolific.com/submissions/complete?cc=C9DG4TYX,"{'PROLIFIC_PID': '65959647dc9090390e4ec364', 'STUDY_ID': '6595c7457f89fe169c18e35d', 'SESSION_ID': '0m6b9t6wri8', 'platform': 'prolific'}",[],,,,,,,,,,71,71,946,[71],[946],src/images/AllPic/129.jpeg,
2117,,main,0,image-slider-response,133,258025,thesis_experiment,65959647dc9090390e4ec364,6595c7457f89fe169c18e35d,0m6b9t6wri8,prolific,2024-01-03T20:53:20Z,competent,2024-01-03T20:59:03Z,341966,"""192.168.0.4""",12/21/23,h9jfzlzs0khyj5g,FALSE,3878987065-exa-5831488301-mple,1.70432E+12,https://app.prolific.com/submissions/complete?cc=C9DG4TYX,"{'PROLIFIC_PID': '65959647dc9090390e4ec364', 'STUDY_ID': '6595c7457f89fe169c18e35d', 'SESSION_ID': '0m6b9t6wri8', 'platform': 'prolific'}",[],,,,,,,,,,71,71,1258,[71],[1258],src/images/AllPic/136.jpeg,
1983,,main,0,image-slider-response,134,260112,thesis_experiment,65959647dc9090390e4ec364,6595c7457f89fe169c18e35d,0m6b9t6wri8,prolific,2024-01-03T20:53:20Z,competent,2024-01-03T20:59:03Z,341966,"""192.168.0.4""",12/21/23,h9jfzlzs0khyj5g,FALSE,3878987065-exa-5831488301-mple,1.70432E+12,https://app.prolific.com/submissions/complete?cc=C9DG4TYX,"{'PROLIFIC_PID': '65959647dc9090390e4ec364', 'STUDY_ID': '6595c7457f89fe169c18e35d', 'SESSION_ID': '0m6b9t6wri8', 'platform': 'prolific'}",[],,,,,,,,,,71,71,1374,[71],[1374],src/images/AllPic/143.jpeg,
1595,,main,0,image-slider-response,135,261812,thesis_experiment,65959647dc9090390e4ec364,6595c7457f89fe169c18e35d,0m6b9t6wri8,prolific,2024-01-03T20:53:20Z,competent,2024-01-03T20:59:03Z,341966,"""192.168.0.4""",12/21/23,h9jfzlzs0khyj5g,FALSE,3878987065-exa-5831488301-mple,1.70432E+12,https://app.prolific.com/submissions/complete?cc=C9DG4TYX,"{'PROLIFIC_PID': '65959647dc9090390e4ec364', 'STUDY_ID': '6595c7457f89fe169c18e35d', 'SESSION_ID': '0m6b9t6wri8', 'platform': 'prolific'}",[],,,,,,,,,,72,72,952,[72],[952],src/images/AllPic/149.jpeg,
1722,,main,0,image-slider-response,136,263639,thesis_experiment,65959647dc9090390e4ec364,6595c7457f89fe169c18e35d,0m6b9t6wri8,prolific,2024-01-03T20:53:20Z,competent,2024-01-03T20:59:03Z,341966,"""192.168.0.4""",12/21/23,h9jfzlzs0khyj5g,FALSE,3878987065-exa-5831488301-mple,1.70432E+12,https://app.prolific.com/submissions/complete?cc=C9DG4TYX,"{'PROLIFIC_PID': '65959647dc9090390e4ec364', 'STUDY_ID': '6595c7457f89fe169c18e35d', 'SESSION_ID': '0m6b9t6wri8', 'platform': 'prolific'}",[],,,,,,,,,,71,71,921,[71],[921],src/images/AllPic/145.jpeg,
1608,,main,0,image-slider-response,137,265355,thesis_experiment,65959647dc9090390e4ec364,6595c7457f89fe169c18e35d,0m6b9t6wri8,prolific,2024-01-03T20:53:20Z,competent,2024-01-03T20:59:03Z,341966,"""192.168.0.4""",12/21/23,h9jfzlzs0khyj5g,FALSE,3878987065-exa-5831488301-mple,1.70432E+12,https://app.prolific.com/submissions/complete?cc=C9DG4TYX,"{'PROLIFIC_PID': '65959647dc9090390e4ec364', 'STUDY_ID': '6595c7457f89fe169c18e35d', 'SESSION_ID': '0m6b9t6wri8', 'platform': 'prolific'}",[],,,,,,,,,,69,69,936,[69],[936],src/images/AllPic/144.jpeg,
1796,,main,0,image-slider-response,138,267256,thesis_experiment,65959647dc9090390e4ec364,6595c7457f89fe169c18e35d,0m6b9t6wri8,prolific,2024-01-03T20:53:20Z,competent,2024-01-03T20:59:03Z,341966,"""192.168.0.4""",12/21/23,h9jfzlzs0khyj5g,FALSE,3878987065-exa-5831488301-mple,1.70432E+12,https://app.prolific.com/submissions/complete?cc=C9DG4TYX,"{'PROLIFIC_PID': '65959647dc9090390e4ec364', 'STUDY_ID': '6595c7457f89fe169c18e35d', 'SESSION_ID': '0m6b9t6wri8', 'platform': 'prolific'}",[],,,,,,,,,,69,69,1189,[69],[1189],src/images/AllPic/133.jpeg,
1648,,main,0,image-slider-response,139,269009,thesis_experiment,65959647dc9090390e4ec364,6595c7457f89fe169c18e35d,0m6b9t6wri8,prolific,2024-01-03T20:53:20Z,competent,2024-01-03T20:59:03Z,341966,"""192.168.0.4""",12/21/23,h9jfzlzs0khyj5g,FALSE,3878987065-exa-5831488301-mple,1.70432E+12,https://app.prolific.com/submissions/complete?cc=C9DG4TYX,"{'PROLIFIC_PID': '65959647dc9090390e4ec364', 'STUDY_ID': '6595c7457f89fe169c18e35d', 'SESSION_ID': '0m6b9t6wri8', 'platform': 'prolific'}",[],,,,,,,,,,71,71,974,[71],[974],src/images/AllPic/131.jpeg,
1449,,main,0,image-slider-response,140,270561,thesis_experiment,65959647dc9090390e4ec364,6595c7457f89fe169c18e35d,0m6b9t6wri8,prolific,2024-01-03T20:53:20Z,competent,2024-01-03T20:59:03Z,341966,"""192.168.0.4""",12/21/23,h9jfzlzs0khyj5g,FALSE,3878987065-exa-5831488301-mple,1.70432E+12,https://app.prolific.com/submissions/complete?cc=C9DG4TYX,"{'PROLIFIC_PID': '65959647dc9090390e4ec364', 'STUDY_ID': '6595c7457f89fe169c18e35d', 'SESSION_ID': '0m6b9t6wri8', 'platform': 'prolific'}",[],,,,,,,,,,68,68,892,[68],[892],src/images/AllPic/141.jpeg,
1449,,main,0,image-slider-response,141,272116,thesis_experiment,65959647dc9090390e4ec364,6595c7457f89fe169c18e35d,0m6b9t6wri8,prolific,2024-01-03T20:53:20Z,competent,2024-01-03T20:59:03Z,341966,"""192.168.0.4""",12/21/23,h9jfzlzs0khyj5g,FALSE,3878987065-exa-5831488301-mple,1.70432E+12,https://app.prolific.com/submissions/complete?cc=C9DG4TYX,"{'PROLIFIC_PID': '65959647dc9090390e4ec364', 'STUDY_ID': '6595c7457f89fe169c18e35d', 'SESSION_ID': '0m6b9t6wri8', 'platform': 'prolific'}",[],,,,,,,,,,69,69,874,[69],[874],src/images/AllPic/139.jpeg,
1633,,main,0,image-slider-response,142,273853,thesis_experiment,65959647dc9090390e4ec364,6595c7457f89fe169c18e35d,0m6b9t6wri8,prolific,2024-01-03T20:53:20Z,competent,2024-01-03T20:59:03Z,341966,"""192.168.0.4""",12/21/23,h9jfzlzs0khyj5g,FALSE,3878987065-exa-5831488301-mple,1.70432E+12,https://app.prolific.com/submissions/complete?cc=C9DG4TYX,"{'PROLIFIC_PID': '65959647dc9090390e4ec364', 'STUDY_ID': '6595c7457f89fe169c18e35d', 'SESSION_ID': '0m6b9t6wri8', 'platform': 'prolific'}",[],,,,,,,,,,69,69,1126,[69],[1126],src/images/AllPic/142.jpeg,
1347,,main,0,image-slider-response,143,275302,thesis_experiment,65959647dc9090390e4ec364,6595c7457f89fe169c18e35d,0m6b9t6wri8,prolific,2024-01-03T20:53:20Z,competent,2024-01-03T20:59:03Z,341966,"""192.168.0.4""",12/21/23,h9jfzlzs0khyj5g,FALSE,3878987065-exa-5831488301-mple,1.70432E+12,https://app.prolific.com/submissions/complete?cc=C9DG4TYX,"{'PROLIFIC_PID': '65959647dc9090390e4ec364', 'STUDY_ID': '6595c7457f89fe169c18e35d', 'SESSION_ID': '0m6b9t6wri8', 'platform': 'prolific'}",[],,,,,,,,,,69,69,839,[69],[839],src/images/AllPic/150.jpeg,
1382,,main,0,image-slider-response,144,276788,thesis_experiment,65959647dc9090390e4ec364,6595c7457f89fe169c18e35d,0m6b9t6wri8,prolific,2024-01-03T20:53:20Z,competent,2024-01-03T20:59:03Z,341966,"""192.168.0.4""",12/21/23,h9jfzlzs0khyj5g,FALSE,3878987065-exa-5831488301-mple,1.70432E+12,https://app.prolific.com/submissions/complete?cc=C9DG4TYX,"{'PROLIFIC_PID': '65959647dc9090390e4ec364', 'STUDY_ID': '6595c7457f89fe169c18e35d', 'SESSION_ID': '0m6b9t6wri8', 'platform': 'prolific'}",[],,,,,,,,,,69,69,874,[69],[874],src/images/AllPic/127.jpeg,
1581,,main,0,image-slider-response,145,278473,thesis_experiment,65959647dc9090390e4ec364,6595c7457f89fe169c18e35d,0m6b9t6wri8,prolific,2024-01-03T20:53:20Z,competent,2024-01-03T20:59:03Z,341966,"""192.168.0.4""",12/21/23,h9jfzlzs0khyj5g,FALSE,3878987065-exa-5831488301-mple,1.70432E+12,https://app.prolific.com/submissions/complete?cc=C9DG4TYX,"{'PROLIFIC_PID': '65959647dc9090390e4ec364', 'STUDY_ID': '6595c7457f89fe169c18e35d', 'SESSION_ID': '0m6b9t6wri8', 'platform': 'prolific'}",[],,,,,,,,,,70,70,925,[70],[925],src/images/AllPic/135.jpeg,
1919,,main,0,image-slider-response,146,280497,thesis_experiment,65959647dc9090390e4ec364,6595c7457f89fe169c18e35d,0m6b9t6wri8,prolific,2024-01-03T20:53:20Z,competent,2024-01-03T20:59:03Z,341966,"""192.168.0.4""",12/21/23,h9jfzlzs0khyj5g,FALSE,3878987065-exa-5831488301-mple,1.70432E+12,https://app.prolific.com/submissions/complete?cc=C9DG4TYX,"{'PROLIFIC_PID': '65959647dc9090390e4ec364', 'STUDY_ID': '6595c7457f89fe169c18e35d', 'SESSION_ID': '0m6b9t6wri8', 'platform': 'prolific'}",[],,,,,,,,,,68,68,1297,[68],[1297],src/images/AllPic/130.jpeg,
1730,,main,0,image-slider-response,147,282332,thesis_experiment,65959647dc9090390e4ec364,6595c7457f89fe169c18e35d,0m6b9t6wri8,prolific,2024-01-03T20:53:20Z,competent,2024-01-03T20:59:03Z,341966,"""192.168.0.4""",12/21/23,h9jfzlzs0khyj5g,FALSE,3878987065-exa-5831488301-mple,1.70432E+12,https://app.prolific.com/submissions/complete?cc=C9DG4TYX,"{'PROLIFIC_PID': '65959647dc9090390e4ec364', 'STUDY_ID': '6595c7457f89fe169c18e35d', 'SESSION_ID': '0m6b9t6wri8', 'platform': 'prolific'}",[],,,,,,,,,,68,68,907,[68],[907],src/images/AllPic/146.jpeg,
1583,,main,0,image-slider-response,148,284019,thesis_experiment,65959647dc9090390e4ec364,6595c7457f89fe169c18e35d,0m6b9t6wri8,prolific,2024-01-03T20:53:20Z,competent,2024-01-03T20:59:03Z,341966,"""192.168.0.4""",12/21/23,h9jfzlzs0khyj5g,FALSE,3878987065-exa-5831488301-mple,1.70432E+12,https://app.prolific.com/submissions/complete?cc=C9DG4TYX,"{'PROLIFIC_PID': '65959647dc9090390e4ec364', 'STUDY_ID': '6595c7457f89fe169c18e35d', 'SESSION_ID': '0m6b9t6wri8', 'platform': 'prolific'}",[],,,,,,,,,,68,68,908,[68],[908],src/images/AllPic/137.jpeg,
1516,,main,0,image-slider-response,149,285638,thesis_experiment,65959647dc9090390e4ec364,6595c7457f89fe169c18e35d,0m6b9t6wri8,prolific,2024-01-03T20:53:20Z,competent,2024-01-03T20:59:03Z,341966,"""192.168.0.4""",12/21/23,h9jfzlzs0khyj5g,FALSE,3878987065-exa-5831488301-mple,1.70432E+12,https://app.prolific.com/submissions/complete?cc=C9DG4TYX,"{'PROLIFIC_PID': '65959647dc9090390e4ec364', 'STUDY_ID': '6595c7457f89fe169c18e35d', 'SESSION_ID': '0m6b9t6wri8', 'platform': 'prolific'}",[],,,,,,,,,,68,68,875,[68],[875],src/images/AllPic/148.jpeg,
1698,,main,0,image-slider-response,150,287440,thesis_experiment,65959647dc9090390e4ec364,6595c7457f89fe169c18e35d,0m6b9t6wri8,prolific,2024-01-03T20:53:20Z,competent,2024-01-03T20:59:03Z,341966,"""192.168.0.4""",12/21/23,h9jfzlzs0khyj5g,FALSE,3878987065-exa-5831488301-mple,1.70432E+12,https://app.prolific.com/submissions/complete?cc=C9DG4TYX,"{'PROLIFIC_PID': '65959647dc9090390e4ec364', 'STUDY_ID': '6595c7457f89fe169c18e35d', 'SESSION_ID': '0m6b9t6wri8', 'platform': 'prolific'}",[],,,,,,,,,,67,67,889,[67],[889],src/images/AllPic/138.jpeg,
1723,,main,0,image-slider-response,151,289267,thesis_experiment,65959647dc9090390e4ec364,6595c7457f89fe169c18e35d,0m6b9t6wri8,prolific,2024-01-03T20:53:20Z,competent,2024-01-03T20:59:03Z,341966,"""192.168.0.4""",12/21/23,h9jfzlzs0khyj5g,FALSE,3878987065-exa-5831488301-mple,1.70432E+12,https://app.prolific.com/submissions/complete?cc=C9DG4TYX,"{'PROLIFIC_PID': '65959647dc9090390e4ec364', 'STUDY_ID': '6595c7457f89fe169c18e35d', 'SESSION_ID': '0m6b9t6wri8', 'platform': 'prolific'}",[],,,,,,,,,,66,66,969,[66],[969],src/images/AllPic/147.jpeg,
1800,,main,0,image-slider-response,152,291171,thesis_experiment,65959647dc9090390e4ec364,6595c7457f89fe169c18e35d,0m6b9t6wri8,prolific,2024-01-03T20:53:20Z,competent,2024-01-03T20:59:03Z,341966,"""192.168.0.4""",12/21/23,h9jfzlzs0khyj5g,FALSE,3878987065-exa-5831488301-mple,1.70432E+12,https://app.prolific.com/submissions/complete?cc=C9DG4TYX,"{'PROLIFIC_PID': '65959647dc9090390e4ec364', 'STUDY_ID': '6595c7457f89fe169c18e35d', 'SESSION_ID': '0m6b9t6wri8', 'platform': 'prolific'}",[],,,,,,,,,,67,67,1192,[67],[1192],src/images/AllPic/140.jpeg,
1801,,main,0,image-slider-response,153,293077,thesis_experiment,65959647dc9090390e4ec364,6595c7457f89fe169c18e35d,0m6b9t6wri8,prolific,2024-01-03T20:53:20Z,competent,2024-01-03T20:59:03Z,341966,"""192.168.0.4""",12/21/23,h9jfzlzs0khyj5g,FALSE,3878987065-exa-5831488301-mple,1.70432E+12,https://app.prolific.com/submissions/complete?cc=C9DG4TYX,"{'PROLIFIC_PID': '65959647dc9090390e4ec364', 'STUDY_ID': '6595c7457f89fe169c18e35d', 'SESSION_ID': '0m6b9t6wri8', 'platform': 'prolific'}",[],,,,,,,,,,67,67,976,[67],[976],src/images/AllPic/132.jpeg,
45322,src/html/survey.html,survey,0,render-mustache-template,154,338619,thesis_experiment,65959647dc9090390e4ec364,6595c7457f89fe169c18e35d,0m6b9t6wri8,prolific,2024-01-03T20:53:20Z,competent,2024-01-03T20:59:03Z,341966,"""192.168.0.4""",12/21/23,h9jfzlzs0khyj5g,FALSE,3878987065-exa-5831488301-mple,1.70432E+12,https://app.prolific.com/submissions/complete?cc=C9DG4TYX,"{'PROLIFIC_PID': '65959647dc9090390e4ec364', 'STUDY_ID': '6595c7457f89fe169c18e35d', 'SESSION_ID': '0m6b9t6wri8', 'platform': 'prolific'}",[],,,,,,surveyForm,#surveyForm,,,,,,,,,"{""whatTested"":""the competency difference changes as the weight changes"",""estimatedPerformance"":""90"",""strategies"":""I did not"",""interruption"":""No, I did not interrupt the task."",""participatedBefore"":""No"",""issues"":""no"",""seriousness"":""66"",""comments"":""no"",""age"":""23"",""race"":[""East Asian""],""sex"":""Female"",""gender"":""female""}"
1959,src/html/debriefing.html,debriefing,0,render-mustache-template,155,340765,thesis_experiment,65959647dc9090390e4ec364,6595c7457f89fe169c18e35d,0m6b9t6wri8,prolific,2024-01-03T20:53:20Z,competent,2024-01-03T20:59:03Z,341966,"""192.168.0.4""",12/21/23,h9jfzlzs0khyj5g,FALSE,3878987065-exa-5831488301-mple,1.70432E+12,https://app.prolific.com/submissions/complete?cc=C9DG4TYX,"{'PROLIFIC_PID': '65959647dc9090390e4ec364', 'STUDY_ID': '6595c7457f89fe169c18e35d', 'SESSION_ID': '0m6b9t6wri8', 'platform': 'prolific'}",[],,,,,,,,,,,,,,,,
,,,0,fullscreen,156,341870,thesis_experiment,65959647dc9090390e4ec364,6595c7457f89fe169c18e35d,0m6b9t6wri8,prolific,2024-01-03T20:53:20Z,competent,2024-01-03T20:59:03Z,341966,"""192.168.0.4""",12/21/23,h9jfzlzs0khyj5g,FALSE,3878987065-exa-5831488301-mple,1.70432E+12,https://app.prolific.com/submissions/complete?cc=C9DG4TYX,"{'PROLIFIC_PID': '65959647dc9090390e4ec364', 'STUDY_ID': '6595c7457f89fe169c18e35d', 'SESSION_ID': '0m6b9t6wri8', 'platform': 'prolific'}","[{'event': 'fullscreenexit', 'time': 340875}]",TRUE,,,,,,,,,,,,,,,
4437,src/html/consent.html,consent,0,render-mustache-template,0,4539,thesis_experiment,60fdb346754e018cbca22ebc,6595c7457f89fe169c18e35d,6595cd77dc9090390e4ed57c,prolific,2024-01-03T21:11:27Z,competent,2024-01-03T21:21:10Z,582379,"""192.168.0.3""",12/21/23,3776vyg0q9fzgnv,FALSE,3772597205-exa-2269909134-mple,1.70432E+12,https://app.prolific.com/submissions/complete?cc=C9DG4TYX,"{'PROLIFIC_PID': '60fdb346754e018cbca22ebc', 'STUDY_ID': '6595c7457f89fe169c18e35d', 'SESSION_ID': '6595cd77dc9090390e4ed57c', 'platform': 'prolific'}",[],,,,,,,,,,,,,,,,
,,,0,fullscreen,1,8819,thesis_experiment,60fdb346754e018cbca22ebc,6595c7457f89fe169c18e35d,6595cd77dc9090390e4ed57c,prolific,2024-01-03T21:11:27Z,competent,2024-01-03T21:21:10Z,582379,"""192.168.0.3""",12/21/23,3776vyg0q9fzgnv,FALSE,3772597205-exa-2269909134-mple,1.70432E+12,https://app.prolific.com/submissions/complete?cc=C9DG4TYX,"{'PROLIFIC_PID': '60fdb346754e018cbca22ebc', 'STUDY_ID': '6595c7457f89fe169c18e35d', 'SESSION_ID': '6595cd77dc9090390e4ed57c', 'platform': 'prolific'}","[{'event': 'fullscreenenter', 'time': 8738}]",TRUE,1920,1080,1920,1080,,,,,,,,,,,
23991,src/html/attrition.html,attrition,0,render-mustache-template,2,32905,thesis_experiment,60fdb346754e018cbca22ebc,6595c7457f89fe169c18e35d,6595cd77dc9090390e4ed57c,prolific,2024-01-03T21:11:27Z,competent,2024-01-03T21:21:10Z,582379,"""192.168.0.3""",12/21/23,3776vyg0q9fzgnv,FALSE,3772597205-exa-2269909134-mple,1.70432E+12,https://app.prolific.com/submissions/complete?cc=C9DG4TYX,"{'PROLIFIC_PID': '60fdb346754e018cbca22ebc', 'STUDY_ID': '6595c7457f89fe169c18e35d', 'SESSION_ID': '6595cd77dc9090390e4ed57c', 'platform': 'prolific'}",[],,,,,,attritionForm,#attritionForm,0,,,,,,,,
14843,,,0,instructions,3,47851,thesis_experiment,60fdb346754e018cbca22ebc,6595c7457f89fe169c18e35d,6595cd77dc9090390e4ed57c,prolific,2024-01-03T21:11:27Z,competent,2024-01-03T21:21:10Z,582379,"""192.168.0.3""",12/21/23,3776vyg0q9fzgnv,FALSE,3772597205-exa-2269909134-mple,1.70432E+12,https://app.prolific.com/submissions/complete?cc=C9DG4TYX,"{'PROLIFIC_PID': '60fdb346754e018cbca22ebc', 'STUDY_ID': '6595c7457f89fe169c18e35d', 'SESSION_ID': '6595cd77dc9090390e4ed57c', 'platform': 'prolific'}",[],,,,,,,,,"[{'page_index': 0, 'viewing_time': 14842.000000000007}]",,,,,,,
3865,,main,0,image-slider-response,4,51820,thesis_experiment,60fdb346754e018cbca22ebc,6595c7457f89fe169c18e35d,6595cd77dc9090390e4ed57c,prolific,2024-01-03T21:11:27Z,competent,2024-01-03T21:21:10Z,582379,"""192.168.0.3""",12/21/23,3776vyg0q9fzgnv,FALSE,3772597205-exa-2269909134-mple,1.70432E+12,https://app.prolific.com/submissions/complete?cc=C9DG4TYX,"{'PROLIFIC_PID': '60fdb346754e018cbca22ebc', 'STUDY_ID': '6595c7457f89fe169c18e35d', 'SESSION_ID': '6595cd77dc9090390e4ed57c', 'platform': 'prolific'}",[],,,,,,,,,,21,21,2690,[21],[2690],src/images/AllPic/31.jpeg,
2356,,main,0,image-slider-response,5,54280,thesis_experiment,60fdb346754e018cbca22ebc,6595c7457f89fe169c18e35d,6595cd77dc9090390e4ed57c,prolific,2024-01-03T21:11:27Z,competent,2024-01-03T21:21:10Z,582379,"""192.168.0.3""",12/21/23,3776vyg0q9fzgnv,FALSE,3772597205-exa-2269909134-mple,1.70432E+12,https://app.prolific.com/submissions/complete?cc=C9DG4TYX,"{'PROLIFIC_PID': '60fdb346754e018cbca22ebc', 'STUDY_ID': '6595c7457f89fe169c18e35d', 'SESSION_ID': '6595cd77dc9090390e4ed57c', 'platform': 'prolific'}",[],,,,,,,,,,38,38,1749,[38],[1749],src/images/AllPic/20.jpeg,
2270,,main,0,image-slider-response,6,56652,thesis_experiment,60fdb346754e018cbca22ebc,6595c7457f89fe169c18e35d,6595cd77dc9090390e4ed57c,prolific,2024-01-03T21:11:27Z,competent,2024-01-03T21:21:10Z,582379,"""192.168.0.3""",12/21/23,3776vyg0q9fzgnv,FALSE,3772597205-exa-2269909134-mple,1.70432E+12,https://app.prolific.com/submissions/complete?cc=C9DG4TYX,"{'PROLIFIC_PID': '60fdb346754e018cbca22ebc', 'STUDY_ID': '6595c7457f89fe169c18e35d', 'SESSION_ID': '6595cd77dc9090390e4ed57c', 'platform': 'prolific'}",[],,,,,,,,,,99,99,1582,[99],[1582],src/images/AllPic/6.jpeg,
1914,,main,0,image-slider-response,7,58667,thesis_experiment,60fdb346754e018cbca22ebc,6595c7457f89fe169c18e35d,6595cd77dc9090390e4ed57c,prolific,2024-01-03T21:11:27Z,competent,2024-01-03T21:21:10Z,582379,"""192.168.0.3""",12/21/23,3776vyg0q9fzgnv,FALSE,3772597205-exa-2269909134-mple,1.70432E+12,https://app.prolific.com/submissions/complete?cc=C9DG4TYX,"{'PROLIFIC_PID': '60fdb346754e018cbca22ebc', 'STUDY_ID': '6595c7457f89fe169c18e35d', 'SESSION_ID': '6595cd77dc9090390e4ed57c', 'platform': 'prolific'}",[],,,,,,,,,,43,43,1290,[43],[1290],src/images/AllPic/11.jpeg,
1766,,main,0,image-slider-response,8,60535,thesis_experiment,60fdb346754e018cbca22ebc,6595c7457f89fe169c18e35d,6595cd77dc9090390e4ed57c,prolific,2024-01-03T21:11:27Z,competent,2024-01-03T21:21:10Z,582379,"""192.168.0.3""",12/21/23,3776vyg0q9fzgnv,FALSE,3772597205-exa-2269909134-mple,1.70432E+12,https://app.prolific.com/submissions/complete?cc=C9DG4TYX,"{'PROLIFIC_PID': '60fdb346754e018cbca22ebc', 'STUDY_ID': '6595c7457f89fe169c18e35d', 'SESSION_ID': '6595cd77dc9090390e4ed57c', 'platform': 'prolific'}",[],,,,,,,,,,65,65,1111,[65],[1111],src/images/AllPic/36.jpeg,
2037,,main,0,image-slider-response,9,62675,thesis_experiment,60fdb346754e018cbca22ebc,6595c7457f89fe169c18e35d,6595cd77dc9090390e4ed57c,prolific,2024-01-03T21:11:27Z,competent,2024-01-03T21:21:10Z,582379,"""192.168.0.3""",12/21/23,3776vyg0q9fzgnv,FALSE,3772597205-exa-2269909134-mple,1.70432E+12,https://app.prolific.com/submissions/complete?cc=C9DG4TYX,"{'PROLIFIC_PID': '60fdb346754e018cbca22ebc', 'STUDY_ID': '6595c7457f89fe169c18e35d', 'SESSION_ID': '6595cd77dc9090390e4ed57c', 'platform': 'prolific'}",[],,,,,,,,,,34,34,1206,[34],[1206],src/images/AllPic/18.jpeg,
2462,,main,0,image-slider-response,10,65240,thesis_experiment,60fdb346754e018cbca22ebc,6595c7457f89fe169c18e35d,6595cd77dc9090390e4ed57c,prolific,2024-01-03T21:11:27Z,competent,2024-01-03T21:21:10Z,582379,"""192.168.0.3""",12/21/23,3776vyg0q9fzgnv,FALSE,3772597205-exa-2269909134-mple,1.70432E+12,https://app.prolific.com/submissions/complete?cc=C9DG4TYX,"{'PROLIFIC_PID': '60fdb346754e018cbca22ebc', 'STUDY_ID': '6595c7457f89fe169c18e35d', 'SESSION_ID': '6595cd77dc9090390e4ed57c', 'platform': 'prolific'}",[],,,,,,,,,,56,56,1867,[56],[1867],src/images/AllPic/22.jpeg,
2170,,main,0,image-slider-response,11,67511,thesis_experiment,60fdb346754e018cbca22ebc,6595c7457f89fe169c18e35d,6595cd77dc9090390e4ed57c,prolific,2024-01-03T21:11:27Z,competent,2024-01-03T21:21:10Z,582379,"""192.168.0.3""",12/21/23,3776vyg0q9fzgnv,FALSE,3772597205-exa-2269909134-mple,1.70432E+12,https://app.prolific.com/submissions/complete?cc=C9DG4TYX,"{'PROLIFIC_PID': '60fdb346754e018cbca22ebc', 'STUDY_ID': '6595c7457f89fe169c18e35d', 'SESSION_ID': '6595cd77dc9090390e4ed57c', 'platform': 'prolific'}",[],,,,,,,,,,12,12,1595,[12],[1595],src/images/AllPic/3.jpeg,
2492,,main,0,image-slider-response,12,70106,thesis_experiment,60fdb346754e018cbca22ebc,6595c7457f89fe169c18e35d,6595cd77dc9090390e4ed57c,prolific,2024-01-03T21:11:27Z,competent,2024-01-03T21:21:10Z,582379,"""192.168.0.3""",12/21/23,3776vyg0q9fzgnv,FALSE,3772597205-exa-2269909134-mple,1.70432E+12,https://app.prolific.com/submissions/complete?cc=C9DG4TYX,"{'PROLIFIC_PID': '60fdb346754e018cbca22ebc', 'STUDY_ID': '6595c7457f89fe169c18e35d', 'SESSION_ID': '6595cd77dc9090390e4ed57c', 'platform': 'prolific'}",[],,,,,,,,,,63,63,1822,[63],[1822],src/images/AllPic/7.jpeg,
1895,,main,0,image-slider-response,13,72103,thesis_experiment,60fdb346754e018cbca22ebc,6595c7457f89fe169c18e35d,6595cd77dc9090390e4ed57c,prolific,2024-01-03T21:11:27Z,competent,2024-01-03T21:21:10Z,582379,"""192.168.0.3""",12/21/23,3776vyg0q9fzgnv,FALSE,3772597205-exa-2269909134-mple,1.70432E+12,https://app.prolific.com/submissions/complete?cc=C9DG4TYX,"{'PROLIFIC_PID': '60fdb346754e018cbca22ebc', 'STUDY_ID': '6595c7457f89fe169c18e35d', 'SESSION_ID': '6595cd77dc9090390e4ed57c', 'platform': 'prolific'}",[],,,,,,,,,,76,76,1240,[76],[1240],src/images/AllPic/25.jpeg,
1920,,main,0,image-slider-response,14,74125,thesis_experiment,60fdb346754e018cbca22ebc,6595c7457f89fe169c18e35d,6595cd77dc9090390e4ed57c,prolific,2024-01-03T21:11:27Z,competent,2024-01-03T21:21:10Z,582379,"""192.168.0.3""",12/21/23,3776vyg0q9fzgnv,FALSE,3772597205-exa-2269909134-mple,1.70432E+12,https://app.prolific.com/submissions/complete?cc=C9DG4TYX,"{'PROLIFIC_PID': '60fdb346754e018cbca22ebc', 'STUDY_ID': '6595c7457f89fe169c18e35d', 'SESSION_ID': '6595cd77dc9090390e4ed57c', 'platform': 'prolific'}",[],,,,,,,,,,67,67,1243,[67],[1243],src/images/AllPic/14.jpeg,
2240,,main,0,image-slider-response,15,76467,thesis_experiment,60fdb346754e018cbca22ebc,6595c7457f89fe169c18e35d,6595cd77dc9090390e4ed57c,prolific,2024-01-03T21:11:27Z,competent,2024-01-03T21:21:10Z,582379,"""192.168.0.3""",12/21/23,3776vyg0q9fzgnv,FALSE,3772597205-exa-2269909134-mple,1.70432E+12,https://app.prolific.com/submissions/complete?cc=C9DG4TYX,"{'PROLIFIC_PID': '60fdb346754e018cbca22ebc', 'STUDY_ID': '6595c7457f89fe169c18e35d', 'SESSION_ID': '6595cd77dc9090390e4ed57c', 'platform': 'prolific'}",[],,,,,,,,,,37,37,1552,[37],[1552],src/images/AllPic/2.jpeg,
1885,,main,0,image-slider-response,16,78455,thesis_experiment,60fdb346754e018cbca22ebc,6595c7457f89fe169c18e35d,6595cd77dc9090390e4ed57c,prolific,2024-01-03T21:11:27Z,competent,2024-01-03T21:21:10Z,582379,"""192.168.0.3""",12/21/23,3776vyg0q9fzgnv,FALSE,3772597205-exa-2269909134-mple,1.70432E+12,https://app.prolific.com/submissions/complete?cc=C9DG4TYX,"{'PROLIFIC_PID': '60fdb346754e018cbca22ebc', 'STUDY_ID': '6595c7457f89fe169c18e35d', 'SESSION_ID': '6595cd77dc9090390e4ed57c', 'platform': 'prolific'}",[],,,,,,,,,,79,79,1213,[79],[1213],src/images/AllPic/10.jpeg,
1853,,main,0,image-slider-response,17,80411,thesis_experiment,60fdb346754e018cbca22ebc,6595c7457f89fe169c18e35d,6595cd77dc9090390e4ed57c,prolific,2024-01-03T21:11:27Z,competent,2024-01-03T21:21:10Z,582379,"""192.168.0.3""",12/21/23,3776vyg0q9fzgnv,FALSE,3772597205-exa-2269909134-mple,1.70432E+12,https://app.prolific.com/submissions/complete?cc=C9DG4TYX,"{'PROLIFIC_PID': '60fdb346754e018cbca22ebc', 'STUDY_ID': '6595c7457f89fe169c18e35d', 'SESSION_ID': '6595cd77dc9090390e4ed57c', 'platform': 'prolific'}",[],,,,,,,,,,71,71,1198,[71],[1198],src/images/AllPic/16.jpeg,
1962,,main,0,image-slider-response,18,82475,thesis_experiment,60fdb346754e018cbca22ebc,6595c7457f89fe169c18e35d,6595cd77dc9090390e4ed57c,prolific,2024-01-03T21:11:27Z,competent,2024-01-03T21:21:10Z,582379,"""192.168.0.3""",12/21/23,3776vyg0q9fzgnv,FALSE,3772597205-exa-2269909134-mple,1.70432E+12,https://app.prolific.com/submissions/complete?cc=C9DG4TYX,"{'PROLIFIC_PID': '60fdb346754e018cbca22ebc', 'STUDY_ID': '6595c7457f89fe169c18e35d', 'SESSION_ID': '6595cd77dc9090390e4ed57c', 'platform': 'prolific'}",[],,,,,,,,,,74,74,1337,[74],[1337],src/images/AllPic/33.jpeg,
2381,,main,0,image-slider-response,19,84958,thesis_experiment,60fdb346754e018cbca22ebc,6595c7457f89fe169c18e35d,6595cd77dc9090390e4ed57c,prolific,2024-01-03T21:11:27Z,competent,2024-01-03T21:21:10Z,582379,"""192.168.0.3""",12/21/23,3776vyg0q9fzgnv,FALSE,3772597205-exa-2269909134-mple,1.70432E+12,https://app.prolific.com/submissions/complete?cc=C9DG4TYX,"{'PROLIFIC_PID': '60fdb346754e018cbca22ebc', 'STUDY_ID': '6595c7457f89fe169c18e35d', 'SESSION_ID': '6595cd77dc9090390e4ed57c', 'platform': 'prolific'}",[],,,,,,,,,,30,30,1678,[30],[1678],src/images/AllPic/1.jpeg,
1902,,main,0,image-slider-response,20,86963,thesis_experiment,60fdb346754e018cbca22ebc,6595c7457f89fe169c18e35d,6595cd77dc9090390e4ed57c,prolific,2024-01-03T21:11:27Z,competent,2024-01-03T21:21:10Z,582379,"""192.168.0.3""",12/21/23,3776vyg0q9fzgnv,FALSE,3772597205-exa-2269909134-mple,1.70432E+12,https://app.prolific.com/submissions/complete?cc=C9DG4TYX,"{'PROLIFIC_PID': '60fdb346754e018cbca22ebc', 'STUDY_ID': '6595c7457f89fe169c18e35d', 'SESSION_ID': '6595cd77dc9090390e4ed57c', 'platform': 'prolific'}",[],,,,,,,,,,56,56,1295,[56],[1295],src/images/AllPic/26.jpeg,
1821,,main,0,image-slider-response,21,88887,thesis_experiment,60fdb346754e018cbca22ebc,6595c7457f89fe169c18e35d,6595cd77dc9090390e4ed57c,prolific,2024-01-03T21:11:27Z,competent,2024-01-03T21:21:10Z,582379,"""192.168.0.3""",12/21/23,3776vyg0q9fzgnv,FALSE,3772597205-exa-2269909134-mple,1.70432E+12,https://app.prolific.com/submissions/complete?cc=C9DG4TYX,"{'PROLIFIC_PID': '60fdb346754e018cbca22ebc', 'STUDY_ID': '6595c7457f89fe169c18e35d', 'SESSION_ID': '6595cd77dc9090390e4ed57c', 'platform': 'prolific'}",[],,,,,,,,,,53,53,1258,[53],[1258],src/images/AllPic/17.jpeg,
2034,,main,0,image-slider-response,22,91023,thesis_experiment,60fdb346754e018cbca22ebc,6595c7457f89fe169c18e35d,6595cd77dc9090390e4ed57c,prolific,2024-01-03T21:11:27Z,competent,2024-01-03T21:21:10Z,582379,"""192.168.0.3""",12/21/23,3776vyg0q9fzgnv,FALSE,3772597205-exa-2269909134-mple,1.70432E+12,https://app.prolific.com/submissions/complete?cc=C9DG4TYX,"{'PROLIFIC_PID': '60fdb346754e018cbca22ebc', 'STUDY_ID': '6595c7457f89fe169c18e35d', 'SESSION_ID': '6595cd77dc9090390e4ed57c', 'platform': 'prolific'}",[],,,,,,,,,,27,27,1442,[27],[1442],src/images/AllPic/37.jpeg,
